Subject	Item	Set	List	Trial	IntRating	PlausRating	LocNum	IntCat	Preposition	Response	RTs59	e.4.15	with-attr-acc	4a	70	3.08	3.55	locp	unint	with	singv	12s141	e.1.04	of-with	3a	54	2.25	3	locs	unint	with	singv	14s22	e.4.08	with-attr-acc	1b	214	2.08	3.18	locp	unint	with	pluralv	15s158	e.1.04	of-with	3b	165	2.25	3	locs	unint	with	singv	51s38	e.4.12	with-attr-acc	1b	208	4.83	6.18	locp	unint	with	singv	83s19	e.5.17	clausal	4a	123	4	4.38	locp	unint	NA	singv	123s74	e.5.01	clausal	3b	151	4.81	6.33	locs	int	NA	singv	123s24	e.5.03	clausal	2b	172	3.44	5.88	locp	int	NA	singv	132s69	e.23.06	for-of-with	1a	215	5.42	5.69	locs	int	of	pluralv	145s57	e.1.01	of-with	3a	188	5	6.55	locs	int	of	singv	156s67	e.5.15	clausal	4a	87	2.63	5.25	locs	unint	NA	singv	168s19	e.1.23	of-with	4a	142	1.75	2.35	locp	unint	with	singv	173s156	e.5.10	clausal	2b	142	3.31	5.63	locs	int	NA	singv	186s67	e.4.18	with-attr-acc	4a	139	6	6.55	locs	int	with	singv	207s165	e.23.15	for-of-with	3a	167	5.5	6.77	locs	unint	with	singv	208s11	e.5.27	clausal	2a	244	2.5	5.5	locs	int	NA	singv	218s158	e.4.15	with-attr-acc	3b	82	4.67	4.18	locp	int	with	singv	219s59	e.1.22	of-with	4a	78	2.92	3.2	locs	int	of	singv	225s67	e.5.30	clausal	4a	148	3.56	5.25	locp	unint	NA	singv	230s165	e.1.12	of-with	3a	253	3.58	4.65	locs	unint	with	singv	238s24	e.4.08	with-attr-acc	2b	246	6.17	5.73	locs	int	with	singv	240s67	e.5.24	clausal	4a	103	2.38	5.78	locs	int	NA	singv	248s11	e.5.30	clausal	2a	193	4.56	4.38	locs	unint	NA	singv	254s71	e.4.08	with-attr-acc	2a	135	6.17	5.73	locs	int	with	singv	255s156	e.5.14	clausal	2b	88	2.81	5.13	locs	int	NA	singv	260s67	e.4.12	with-attr-acc	4a	104	4.75	5	locp	int	with	singv	260s158	e.1.12	of-with	3b	142	3.58	4.65	locs	unint	with	singv	268s38	e.4.07	with-attr-acc	1b	210	6.25	5.45	locs	int	with	singv	278s158	e.4.04	with-attr-acc	3b	202	3.08	5.36	locs	unint	with	singv	279s165	e.23.16	for-of-with	3a	57	5.67	6.86	locs	unint	with	singv	281s6	e.5.31	clausal	3a	229	2.94	3.78	locs	unint	NA	singv	282s71	e.23.06	for-of-with	2a	246	3.92	5.38	locp	int	of	singv	283s6	e.23.14	for-of-with	3a	218	5.5	6.93	locp	unint	with	singv	284s6	e.23.18	for-of-with	3a	246	4.42	6.92	locs	int	of	singv	287s158	e.5.09	clausal	3b	183	3	4.56	locp	int	NA	pluralv	292s264	e.23.18	for-of-with	2b	196	4.92	6.38	locp	unint	with	singv	294s8	e.4.12	with-attr-acc	4b	215	4.75	5	locp	int	with	singv	294s71	e.23.19	for-of-with	2a	117	4.5	5.64	locs	int	for	singv	297s158	e.5.27	clausal	3b	225	2.5	4.25	locs	unint	NA	singv	298s24	e.5.23	clausal	2b	145	3.69	3.63	locp	unint	NA	singv	298s44	e.4.06	with-attr-acc	4b	163	6	4.18	locs	int	with	singv	301s156	e.5.05	clausal	2b	151	4.31	5.25	locs	int	NA	singv	302s6	e.5.14	clausal	3a	255	2.38	5.33	locs	unint	NA	singv	302s156	e.5.09	clausal	2b	225	2.63	5.88	locs	unint	NA	singv	306s24	e.5.24	clausal	2b	223	2.31	4.5	locp	int	NA	singv	307s19	e.5.34	clausal	4a	44	2.5	4.5	locp	unint	NA	singv	308s19	e.4.12	with-attr-acc	4a	104	4.75	5	locp	int	with	singv	309s6	e.5.30	clausal	3a	148	5.44	5.89	locp	int	NA	singv	310s264	e.4.02	with-attr-acc	2b	206	4.75	6.55	locp	int	with	singv	313s19	e.4.08	with-attr-acc	4a	185	6.58	5.27	locp	int	with	singv	314s19	e.4.20	with-attr-acc	4a	253	6	5.55	locp	int	with	singv	316s158	e.1.11	of-with	3b	140	4.42	5.1	locp	int	of	pluralv	319s49	e.5.13	clausal	3a	249	4.38	6	locp	int	NA	singv	320s57	e.23.03	for-of-with	3a	163	5.08	5.18	locs	int	for	singv	320s156	e.5.16	clausal	2b	234	5.06	5.63	locp	int	NA	singv	321s52	e.4.20	with-attr-acc	4b	142	6	5.55	locp	int	with	singv	321s141	e.1.12	of-with	3a	253	3.58	4.65	locs	unint	with	singv	322s156	e.1.04	of-with	2b	198	4.17	5.15	locs	int	of	singv	324s19	e.4.03	with-attr-acc	4a	181	3.92	5.36	locp	unint	with	singv	324s264	e.1.22	of-with	2b	168	2.42	2.8	locp	int	of	singv	334s61	e.5.03	clausal	1a	61	2.19	4.63	locs	unint	NA	singv	334s264	e.1.04	of-with	2b	198	4.17	5.15	locs	int	of	singv	335s35	e.5.18	clausal	4a	193	2.31	5.33	locp	int	NA	singv	338s71	e.4.04	with-attr-acc	2a	146	4	5.45	locs	int	with	singv	338s49	e.1.01	of-with	3a	188	5	6.55	locs	int	of	singv	339s71	e.5.34	clausal	2a	249	2.69	5.5	locs	unint	NA	singv	342s264	e.23.07	for-of-with	2b	177	3.5	6	locs	unint	with	singv	343s264	e.5.21	clausal	2b	200	2.44	4	locs	unint	NA	singv	343s264	e.5.29	clausal	2b	185	4.25	6	locp	int	NA	singv	344s165	e.23.12	for-of-with	3a	142	4.33	5.08	locp	unint	with	singv	345s57	e.4.18	with-attr-acc	3a	241	3.58	5.09	locp	unint	with	pluralv	347s19	e.1.17	of-with	4a	167	3.92	4.45	locs	unint	with	singv	349s264	e.5.22	clausal	2b	140	3.88	5.88	locs	int	NA	singv	349s6	e.1.01	of-with	3a	188	5	6.55	locs	int	of	singv	349s264	e.23.01	for-of-with	2b	202	3.58	6.09	locp	int	for	singv	352s264	e.4.06	with-attr-acc	2b	120	5.08	5.64	locp	int	with	singv	355s175	e.5.10	clausal	4a	205	3.69	5.88	locp	int	NA	singv	356s40	e.4.02	with-attr-acc	2b	206	4.75	6.55	locp	int	with	singv	360s6	e.1.11	of-with	3a	251	4.42	5.1	locp	int	of	singv	360s71	e.23.16	for-of-with	2a	208	5.42	6.82	locp	int	for	singv	360s45	e.1.20	of-with	1a	239	4.92	4.9	locp	unint	with	singv	361s24	e.5.14	clausal	2b	88	2.81	5.13	locs	int	NA	singv	365s6	e.4.13	with-attr-acc	3a	211	6.08	6.27	locs	int	with	singv	365s49	e.23.18	for-of-with	3a	246	4.42	6.92	locs	int	of	singv	367s264	e.4.14	with-attr-acc	2b	79	5.83	6.55	locp	int	with	singv	368s264	e.23.11	for-of-with	2b	60	3.92	5.18	locs	int	for	singv	368s19	e.4.18	with-attr-acc	4a	139	6	6.55	locs	int	with	singv	369s264	e.1.01	of-with	2b	250	2.58	4.6	locp	unint	with	singv	369s19	e.1.07	of-with	4a	231	4.64	4.75	locp	unint	with	singv	370s264	e.1.18	of-with	2b	174	3.75	3.05	locp	int	of	singv	370s71	e.4.13	with-attr-acc	2a	80	2.17	4.36	locp	unint	with	singv	373s8	e.23.07	for-of-with	4b	242	4.25	6.73	locs	int	for	singv	373s264	e.5.20	clausal	2b	155	2.75	3.63	locp	int	NA	singv	374s264	e.1.20	of-with	2b	84	5.17	6.35	locs	int	of	singv	374s158	e.4.07	with-attr-acc	3b	228	5.91	5.45	locp	int	with	pluralv	376s19	e.23.07	for-of-with	4a	131	4.25	6.73	locs	int	for	singv	376s49	e.4.18	with-attr-acc	3a	241	3.58	5.09	locp	unint	with	singv	376s19	e.5.10	clausal	4a	205	3.69	5.88	locp	int	NA	singv	378s24	e.4.05	with-attr-acc	2b	128	4.67	5.27	locp	unint	with	singv	378s35	e.5.29	clausal	4a	159	3.81	5.44	locs	int	NA	singv	378s49	e.5.27	clausal	3a	114	2.5	4.25	locs	unint	NA	singv	378s49	e.4.14	with-attr-acc	3a	244	3.25	3.82	locp	unint	with	pluralv	379s19	e.4.04	with-attr-acc	4a	191	4.42	6.45	locp	int	with	singv	381s264	e.4.24	with-attr-acc	2b	113	5	6.55	locs	int	with	singv	381s264	e.5.09	clausal	2b	225	2.63	5.88	locs	unint	NA	singv	383s8	e.4.23	with-attr-acc	4b	248	2.17	2.45	locp	unint	with	singv	383s264	e.5.32	clausal	2b	194	3.19	5.13	locp	unint	NA	singv	384s264	e.4.12	with-attr-acc	2b	122	3.5	5.09	locs	int	with	singv	384s264	e.5.05	clausal	2b	151	4.31	5.25	locs	int	NA	singv	384s22	e.23.13	for-of-with	1b	237	3.33	5	locs	unint	with	singv	387s264	e.5.13	clausal	2b	214	3.38	6.38	locs	unint	NA	singv	388s61	e.5.01	clausal	1a	237	4.81	6	locp	int	NA	singv	389s264	e.4.21	with-attr-acc	2b	124	3.92	3.09	locp	unint	with	singv	390s142	e.5.23	clausal	3b	206	5.81	5.25	locs	int	NA	singv	391s19	e.1.11	of-with	4a	41	4.42	5	locp	unint	with	singv	391s52	e.4.12	with-attr-acc	4b	215	4.75	5	locp	int	with	singv	391s46	e.5.34	clausal	1b	248	3.38	6	locs	int	NA	singv	392s57	e.4.05	with-attr-acc	3a	137	4.08	5	locs	int	with	singv	392s172	e.4.20	with-attr-acc	2b	240	6	6.18	locs	int	with	singv	393s52	e.1.04	of-with	4b	135	4.08	4.25	locp	int	of	singv	393s336	e.4.18	with-attr-acc	4b	250	6	6.55	locs	int	with	singv	394s49	e.5.16	clausal	3a	119	4.88	5	locp	unint	NA	singv	395s24	e.23.20	for-of-with	2b	181	4.36	5.57	locs	unint	with	singv	396s76	e.23.15	for-of-with	4b	168	5.5	7	locp	unint	with	singv	396s19	e.5.26	clausal	4a	120	3.19	4.11	locp	unint	NA	singv	397s172	e.4.05	with-attr-acc	2b	128	4.67	5.27	locp	unint	with	singv	398s19	e.5.27	clausal	4a	68	2.88	5.88	locp	int	NA	singv	399s61	e.23.06	for-of-with	1a	215	5.42	5.69	locs	int	of	singv	401s264	e.1.19	of-with	2b	126	5.33	3.25	locs	unint	with	singv	404s141	e.1.11	of-with	3a	251	4.42	5.1	locp	int	of	singv	405s175	e.4.18	with-attr-acc	4a	139	6	6.55	locs	int	with	singv	406s336	e.5.29	clausal	4b	48	3.81	5.44	locs	int	NA	singv	406s49	e.4.17	with-attr-acc	3a	169	6.42	6.36	locs	int	with	singv	406s19	e.5.22	clausal	4a	72	3.31	5.13	locp	int	NA	singv	407s19	e.4.09	with-attr-acc	4a	89	2.58	3.36	locs	unint	with	singv	407s264	e.23.06	for-of-with	2b	135	3.92	5.38	locp	int	of	singv	408s74	e.1.11	of-with	3b	140	4.42	5.1	locp	int	of	singv	409s24	e.5.27	clausal	2b	133	2.5	5.5	locs	int	NA	singv	410s67	e.5.05	clausal	4a	215	4.75	5.33	locp	int	NA	singv	410s264	e.1.17	of-with	2b	230	3.42	4.7	locp	unint	with	singv	411s7	e.1.11	of-with	4a	41	4.42	5	locp	unint	with	singv	411s264	e.23.17	for-of-with	2b	130	5.25	6.86	locs	int	of	singv	412s57	e.1.05	of-with	3a	190	3.25	4.85	locs	int	of	singv	412s19	e.5.19	clausal	4a	224	1.63	4.89	locs	unint	NA	singv	414s24	e.4.11	with-attr-acc	2b	77	1.5	1.55	locs	unint	with	singv	415s43	e.23.14	for-of-with	4a	146	5.5	6.64	locs	int	for	singv	415s158	e.1.03	of-with	3b	210	3.75	3.05	locp	int	of	singv	417s52	e.1.11	of-with	4b	152	4.42	5	locp	unint	with	singv	417s17	e.5.13	clausal	2b	214	3.38	6.38	locs	unint	NA	singv	418s264	e.4.01	with-attr-acc	2b	144	2.92	3.82	locp	unint	with	singv	418s264	e.5.04	clausal	2b	231	1.94	5.25	locs	unint	NA	singv	418s24	e.5.26	clausal	2b	187	2.69	4.13	locs	unint	NA	singv	420s19	e.5.33	clausal	4a	235	4.44	5.25	locs	int	NA	singv	421s264	e.1.23	of-with	2b	163	1.42	2.7	locs	unint	with	singv	421s175	e.5.30	clausal	4a	148	3.56	5.25	locp	unint	NA	singv	422s142	e.5.03	clausal	3b	126	2.94	5.63	locp	unint	NA	singv	424s39	e.5.06	clausal	2a	126	3.5	6	locp	unint	NA	singv	426s8	e.4.18	with-attr-acc	4b	250	6	6.55	locs	int	with	singv	428s141	e.5.09	clausal	3a	72	3	4.56	locp	int	NA	singv	429s175	e.4.02	with-attr-acc	4a	108	5.17	5.45	locs	int	with	singv	429s19	e.4.14	with-attr-acc	4a	119	6.08	6.36	locs	int	with	singv	429s264	e.23.10	for-of-with	2b	116	4.33	5.64	locp	unint	with	singv	429s6	e.23.15	for-of-with	3a	167	5.5	6.77	locs	unint	with	singv	429s25	e.4.18	with-attr-acc	3a	241	3.58	5.09	locp	unint	with	singv	430s264	e.5.23	clausal	2b	145	3.69	3.63	locp	unint	NA	singv	430s69	e.23.13	for-of-with	1a	126	3.33	5	locs	unint	with	singv	430s19	e.5.06	clausal	4a	161	2.88	5.88	locs	unint	NA	singv	431s49	e.5.30	clausal	3a	148	5.44	5.89	locp	int	NA	singv	433s8	e.5.17	clausal	4b	234	4	4.38	locp	unint	NA	singv	433s163	e.5.27	clausal	2a	244	2.5	5.5	locs	int	NA	singv	434s57	e.5.13	clausal	3a	249	4.38	6	locp	int	NA	singv	434s34	e.1.15	of-with	3b	223	3.67	4.3	locp	int	of	singv	435s45	e.4.01	with-attr-acc	1a	193	6.08	6.45	locp	int	with	singv	435s71	e.23.12	for-of-with	2a	179	4.5	5.92	locs	unint	with	singv	435s8	e.5.22	clausal	4b	183	3.31	5.13	locp	int	NA	singv	436s49	e.4.07	with-attr-acc	3a	117	5.91	5.45	locp	int	with	pluralv	438s52	e.5.04	clausal	4b	170	2.5	5.88	locp	unint	NA	singv	438s156	e.5.27	clausal	2b	133	2.5	5.5	locs	int	NA	singv	439s19	e.4.02	with-attr-acc	4a	108	5.17	5.45	locs	int	with	singv	440s19	e.5.24	clausal	4a	103	2.38	5.78	locs	int	NA	singv	440s22	e.4.22	with-attr-acc	1b	250	4.58	4.91	locs	unint	with	singv	440s264	e.1.24	of-with	2b	170	3.5	4.65	locs	int	of	singv	440s264	e.4.08	with-attr-acc	2b	246	6.17	5.73	locs	int	with	singv	440s19	e.5.13	clausal	4a	101	3.75	6	locp	unint	NA	singv	441s19	e.4.21	with-attr-acc	4a	176	2.5	3.36	locs	unint	with	singv	441s33	e.1.11	of-with	3a	251	4.42	5.1	locp	int	of	singv	441s24	e.5.16	clausal	2b	234	5.06	5.63	locp	int	NA	singv	442s49	e.4.04	with-attr-acc	3a	91	3.08	5.36	locs	unint	with	singv	442s52	e.4.04	with-attr-acc	4b	80	4.42	6.45	locp	int	with	singv	442s264	e.1.12	of-with	2b	58	4.42	6.45	locs	int	of	singv	447s71	e.5.18	clausal	2a	229	2.63	5.5	locs	int	NA	singv	447s165	e.1.15	of-with	3a	112	3.67	4.3	locp	int	of	singv	448s52	e.4.10	with-attr-acc	4b	118	5.75	5.91	locs	int	with	singv	448s52	e.5.16	clausal	4b	194	4.94	4.75	locs	int	NA	singv	448s71	e.4.21	with-attr-acc	2a	235	3.92	3.09	locp	unint	with	singv	448s35	e.1.05	of-with	4a	116	2.58	2.55	locs	unint	with	singv	449s158	e.5.18	clausal	3b	185	2.69	5.63	locs	unint	NA	pluralv	450s51	e.5.10	clausal	4a	205	3.69	5.88	locp	int	NA	singv	450s264	e.5.16	clausal	2b	234	5.06	5.63	locp	int	NA	singv	451s61	e.4.19	with-attr-acc	1a	95	5.58	5.82	locs	int	with	singv	452s264	e.23.15	for-of-with	2b	147	5.92	6.77	locp	int	of	singv	453s264	e.1.08	of-with	2b	52	4.33	4.55	locs	int	of	singv	455s172	e.1.24	of-with	2b	170	3.5	4.65	locs	int	of	singv	457s24	e.5.13	clausal	2b	214	3.38	6.38	locs	unint	NA	singv	459s52	e.23.01	for-of-with	4b	240	2.75	4.46	locp	unint	with	singv	460s73	e.5.03	clausal	3a	237	2.94	5.63	locp	unint	NA	singv	461s264	e.4.13	with-attr-acc	2b	191	2.17	4.36	locp	unint	with	singv	462s264	e.1.03	of-with	2b	65	2.58	2.5	locs	unint	with	singv	462s38	e.5.23	clausal	1b	230	5	4.63	locp	int	NA	singv	462s19	e.4.07	with-attr-acc	4a	179	1.58	3.64	locp	unint	with	singv	463s264	e.4.09	with-attr-acc	2b	210	2.25	2.64	locp	unint	with	singv	463s15	e.4.06	with-attr-acc	2a	231	5.08	5.64	locp	int	with	singv	464s175	e.23.07	for-of-with	4a	131	4.25	6.73	locs	int	for	singv	464s264	e.5.17	clausal	2b	104	3.81	4.38	locs	unint	NA	singv	464s19	e.1.10	of-with	4a	97	3.17	3.95	locs	int	of	singv	465s25	e.4.01	with-attr-acc	3a	202	6	5.91	locs	int	with	singv	465s19	e.5.29	clausal	4a	159	3.81	5.44	locs	int	NA	singv	467s70	e.5.03	clausal	1b	172	2.19	4.63	locs	unint	NA	singv	468s150	e.4.18	with-attr-acc	3b	130	3.58	5.09	locp	unint	with	pluralv	469s165	e.4.11	with-attr-acc	3a	66	5.25	3.82	locp	int	with	singv	469s31	e.4.18	with-attr-acc	2a	197	6.42	6.45	locp	int	with	singv	469s57	e.23.10	for-of-with	3a	227	5.25	4.54	locs	int	of	singv	469s49	e.1.08	of-with	3a	195	3.58	4.7	locs	unint	with	singv	470s55	e.1.01	of-with	2a	139	2.58	4.6	locp	unint	with	singv	470s33	e.5.14	clausal	3a	255	2.38	5.33	locs	unint	NA	singv	471s19	e.5.09	clausal	4a	38	2.56	5.88	locp	unint	NA	singv	472s264	e.1.10	of-with	2b	158	3.58	5	locp	int	of	singv	474s264	e.23.12	for-of-with	2b	68	4.5	5.92	locs	unint	with	singv	474s172	e.23.10	for-of-with	2b	116	4.33	5.64	locp	unint	with	singv	475s19	e.4.24	with-attr-acc	4a	114	5.92	5.36	locp	int	with	singv	476s142	e.4.11	with-attr-acc	3b	177	5.25	3.82	locp	int	with	singv	477s19	e.23.18	for-of-with	4a	144	4.92	7	locp	int	of	singv	477s19	e.5.31	clausal	4a	95	2.44	5.5	locp	int	NA	singv	477s19	e.5.08	clausal	4a	197	4.13	5.56	locs	int	NA	singv	477s57	e.5.12	clausal	3a	87	1.94	5.63	locp	unint	NA	singv	477s8	e.5.24	clausal	4b	214	2.38	5.78	locs	int	NA	singv	477s52	e.1.01	of-with	4b	223	2.92	6.1	locs	unint	with	singv	478s71	e.5.16	clausal	2a	123	5.06	5.63	locp	int	NA	singv	478s62	e.23.01	for-of-with	1b	116	4.25	4.91	locs	int	for	singv	479s142	e.5.11	clausal	3b	74	2.94	5.38	locs	int	NA	singv	480s168	e.5.34	clausal	4b	155	2.5	4.5	locp	unint	NA	singv	480s8	e.1.22	of-with	4b	189	2.92	3.2	locs	int	of	singv	480s172	e.5.06	clausal	2b	237	3.5	6	locp	unint	NA	singv	482s150	e.1.18	of-with	3b	234	2.17	3.05	locp	unint	with	singv	483s19	e.5.20	clausal	4a	195	2.94	4.13	locs	int	NA	singv	483s6	e.1.05	of-with	3a	190	3.25	4.85	locs	int	of	singv	484s19	e.5.01	clausal	4a	61	4.13	4.75	locs	unint	NA	singv	485s38	e.23.05	for-of-with	1b	179	4.08	6.36	locp	int	of	singv	485s71	e.23.17	for-of-with	2a	241	5.25	6.86	locs	int	of	singv	486s175	e.1.07	of-with	4a	231	4.64	4.75	locp	unint	with	pluralv	488s22	e.23.16	for-of-with	1b	56	5.5	5.73	locs	int	for	singv	488s264	e.23.09	for-of-with	2b	74	4.33	4.38	locs	int	of	singv	488s71	e.23.02	for-of-with	2a	148	4.17	5.64	locs	int	for	singv	488s23	e.5.17	clausal	2a	215	3.81	4.38	locs	unint	NA	singv	489s264	e.5.24	clausal	2b	223	2.31	4.5	locp	int	NA	singv	489s57	e.4.09	with-attr-acc	3a	179	5	6.64	locs	int	with	singv	489s71	e.5.30	clausal	2a	193	4.56	4.38	locs	unint	NA	singv	489s19	e.23.04	for-of-with	4a	126	3.58	5	locp	int	of	pluralv	490s49	e.4.19	with-attr-acc	3a	152	4.92	5.36	locp	int	with	pluralv	490s19	e.23.08	for-of-with	4a	239	4.58	6.31	locp	unint	with	singv	491s156	e.23.08	for-of-with	2b	244	5	4.91	locp	int	for	singv	492s172	e.23.01	for-of-with	2b	202	3.58	6.09	locp	int	for	singv	493s52	e.4.02	with-attr-acc	4b	219	5.17	5.45	locs	int	with	singv	493s69	e.4.15	with-attr-acc	1a	191	4.5	5.64	locs	int	with	singv	494s19	e.5.03	clausal	4a	190	3.63	5.5	locs	int	NA	singv	496s57	e.23.13	for-of-with	3a	231	4	6.27	locs	int	for	singv	496s6	e.23.03	for-of-with	3a	163	5.08	5.18	locs	int	for	singv	496s7	e.23.14	for-of-with	4a	146	5.5	6.64	locs	int	for	singv	496s163	e.5.04	clausal	2a	120	1.94	5.25	locs	unint	NA	singv	497s33	e.5.23	clausal	3a	95	5.81	5.25	locs	int	NA	singv	497s336	e.4.12	with-attr-acc	4b	215	4.75	5	locp	int	with	singv	497s38	e.5.26	clausal	1b	244	3.31	5	locs	int	NA	singv	497s57	e.1.11	of-with	3a	251	4.42	5.1	locp	int	of	singv	497s52	e.4.21	with-attr-acc	4b	65	2.5	3.36	locs	unint	with	singv	498s25	e.4.17	with-attr-acc	3a	169	6.42	6.36	locs	int	with	singv	499s57	e.1.15	of-with	3a	112	3.67	4.3	locp	int	of	singv	500s7	e.4.19	with-attr-acc	4a	204	3.08	4.36	locp	unint	with	singv	500s142	e.23.12	for-of-with	3b	253	4.33	5.08	locp	unint	with	singv	501s17	e.5.10	clausal	2b	142	3.31	5.63	locs	int	NA	singv	501s18	e.4.05	with-attr-acc	3b	248	4.08	5	locs	int	with	singv	501s24	e.5.29	clausal	2b	185	4.25	6	locp	int	NA	singv	501s264	e.5.03	clausal	2b	172	3.44	5.88	locp	int	NA	singv	501s49	e.23.16	for-of-with	3a	57	5.67	6.86	locs	unint	with	singv	502s52	e.5.12	clausal	4b	158	3.69	5	locs	int	NA	singv	502s165	e.23.08	for-of-with	3a	204	4.92	6.15	locs	unint	with	pluralv	503s19	e.1.24	of-with	4a	91	4.75	3.8	locp	int	of	singv	504s264	e.23.04	for-of-with	2b	189	3.17	5.14	locp	unint	with	singv	504s39	e.4.10	with-attr-acc	2a	213	5.33	5.73	locp	int	with	singv	504s12	e.23.16	for-of-with	3b	168	5.67	6.86	locs	unint	with	singv	505s172	e.4.18	with-attr-acc	2b	86	6.42	6.45	locp	int	with	singv	505s24	e.4.06	with-attr-acc	2b	120	5.08	5.64	locp	int	with	singv	505s43	e.5.23	clausal	4a	169	4.38	3.5	locs	unint	NA	singv	505s52	e.4.09	with-attr-acc	4b	200	2.58	3.36	locs	unint	with	singv	505s67	e.23.07	for-of-with	4a	131	4.25	6.73	locs	int	for	pluralv	505s25	e.5.06	clausal	3a	208	4.44	5.38	locs	int	NA	singv	506s264	e.23.05	for-of-with	2b	93	4.83	5.69	locs	unint	with	singv	506s46	e.1.19	of-with	1b	158	5.83	6.2	locs	int	of	singv	506s172	e.5.27	clausal	2b	133	2.5	5.5	locs	int	NA	singv	507s38	e.4.11	with-attr-acc	1b	200	5.33	4.45	locs	int	with	singv	507s142	e.23.14	for-of-with	3b	107	5.5	6.93	locp	unint	with	singv	509s264	e.4.18	with-attr-acc	2b	86	6.42	6.45	locp	int	with	singv	509s52	e.4.16	with-attr-acc	4b	151	5.67	5.09	locp	int	with	singv	509s172	e.4.06	with-attr-acc	2b	120	5.08	5.64	locp	int	with	singv	510s19	e.1.01	of-with	4a	112	2.92	6.1	locs	unint	with	singv	510s43	e.4.18	with-attr-acc	4a	139	6	6.55	locs	int	with	singv	510s25	e.5.27	clausal	3a	114	2.5	4.25	locs	unint	NA	singv	511s6	e.23.16	for-of-with	3a	57	5.67	6.86	locs	unint	with	singv	511s168	e.4.18	with-attr-acc	4b	250	6	6.55	locs	int	with	singv	512s31	e.5.18	clausal	2a	229	2.63	5.5	locs	int	NA	singv	512s39	e.5.30	clausal	2a	193	4.56	4.38	locs	unint	NA	singv	513s67	e.23.05	for-of-with	4a	244	5.17	5.77	locs	int	of	singv	513s7	e.23.08	for-of-with	4a	239	4.58	6.31	locp	unint	with	pluralv	513s19	e.1.21	of-with	4a	251	5.25	5	locs	unint	with	singv	514s264	e.4.19	with-attr-acc	2b	80	2.83	5.91	locs	unint	with	singv	515s33	e.5.30	clausal	3a	148	5.44	5.89	locp	int	NA	singv	515s4	e.4.24	with-attr-acc	2b	113	5	6.55	locs	int	with	singv	515s67	e.5.03	clausal	4a	190	3.63	5.5	locs	int	NA	singv	515s172	e.4.12	with-attr-acc	2b	122	3.5	5.09	locs	int	with	singv	516s19	e.4.11	with-attr-acc	4a	233	1.33	1.91	locp	unint	with	singv	516s46	e.5.30	clausal	1b	145	5.44	6	locs	int	NA	singv	516s49	e.23.08	for-of-with	3a	204	4.92	6.15	locs	unint	with	singv	516s18	e.5.34	clausal	3b	35	2.38	5.63	locp	int	NA	singv	517s49	e.1.02	of-with	3a	61	3.33	3.85	locp	unint	with	singv	517s61	e.4.07	with-attr-acc	1a	99	6.25	5.45	locs	int	with	singv	517s66	e.1.23	of-with	3b	174	2.75	3.5	locp	int	of	singv	517s127	e.4.20	with-attr-acc	4a	253	6	5.55	locp	int	with	singv	518s175	e.5.13	clausal	4a	101	3.75	6	locp	unint	NA	singv	518s19	e.5.28	clausal	4a	202	2.69	4.13	locs	unint	NA	singv	518s46	e.5.29	clausal	1b	242	3	4.88	locs	unint	NA	singv	518s12	e.23.17	for-of-with	3b	240	5.75	6.54	locp	int	of	singv	519s165	e.1.08	of-with	3a	195	3.58	4.7	locs	unint	with	singv	519s172	e.5.22	clausal	2b	140	3.88	5.88	locs	int	NA	singv	519s19	e.23.01	for-of-with	4a	129	2.75	4.46	locp	unint	with	singv	519s156	e.5.03	clausal	2b	172	3.44	5.88	locp	int	NA	singv	520s19	e.5.23	clausal	4a	169	4.38	3.5	locs	unint	NA	singv	520s6	e.4.03	with-attr-acc	3a	224	5.92	6.45	locp	int	with	singv	520s22	e.1.03	of-with	1b	185	4	3.45	locs	int	of	singv	521s264	e.23.19	for-of-with	2b	228	4.5	5.64	locs	int	for	singv	521s25	e.5.11	clausal	3a	185	2.94	5.38	locs	int	NA	singv	522s38	e.5.36	clausal	1b	135	2.19	4.13	locp	unint	NA	singv	522s39	e.1.12	of-with	2a	169	4.42	6.45	locs	int	of	singv	522s6	e.23.19	for-of-with	3a	126	4.58	6.64	locp	int	for	singv	522s158	e.4.14	with-attr-acc	3b	133	3.25	3.82	locp	unint	with	pluralv	523s172	e.1.22	of-with	2b	168	2.42	2.8	locp	int	of	singv	523s32	e.4.20	with-attr-acc	2b	240	6	6.18	locs	int	with	singv	523s8	e.4.09	with-attr-acc	4b	200	2.58	3.36	locs	unint	with	singv	523s24	e.4.18	with-attr-acc	2b	86	6.42	6.45	locp	int	with	singv	524s6	e.5.22	clausal	3a	131	2.63	4.38	locs	unint	NA	singv	524s12	e.4.05	with-attr-acc	3b	248	4.08	5	locs	int	with	singv	525s172	e.1.15	of-with	2b	179	4.25	3.8	locs	unint	with	singv	525s19	e.1.20	of-with	4a	208	4.83	6.2	locp	int	of	singv	525s20	e.4.12	with-attr-acc	4b	215	4.75	5	locp	int	with	singv	525s29	e.1.24	of-with	1a	41	3.58	4.15	locp	unint	with	singv	525s49	e.1.03	of-with	3a	99	3.75	3.05	locp	int	of	pluralv	525s8	e.5.12	clausal	4b	158	3.69	5	locs	int	NA	singv	525s264	e.5.01	clausal	2b	219	4.75	4.63	locp	unint	NA	singv	526s33	e.4.19	with-attr-acc	3a	152	4.92	5.36	locp	int	with	singv	526s15	e.5.12	clausal	2a	159	3.13	4.38	locp	int	NA	singv	527s165	e.1.02	of-with	3a	61	3.33	3.85	locp	unint	with	singv	527s7	e.5.03	clausal	4a	190	3.63	5.5	locs	int	NA	singv	527s16	e.4.11	with-attr-acc	1b	200	5.33	4.45	locs	int	with	singv	528s46	e.5.03	clausal	1b	172	2.19	4.63	locs	unint	NA	singv	528s172	e.5.34	clausal	2b	138	2.69	5.5	locs	unint	NA	singv	529s52	e.5.03	clausal	4b	79	3.63	5.5	locs	int	NA	singv	529s12	e.4.18	with-attr-acc	3b	130	3.58	5.09	locp	unint	with	singv	530s127	e.5.28	clausal	4a	202	2.69	4.13	locs	unint	NA	singv	530s172	e.23.05	for-of-with	2b	93	4.83	5.69	locs	unint	with	singv	530s172	e.4.24	with-attr-acc	2b	113	5	6.55	locs	int	with	singv	530s175	e.5.29	clausal	4a	159	3.81	5.44	locs	int	NA	singv	530s19	e.5.36	clausal	4a	109	1.75	5.75	locp	int	NA	singv	530s39	e.4.04	with-attr-acc	2a	146	4	5.45	locs	int	with	singv	530s19	e.23.10	for-of-with	4a	99	4.67	3.31	locp	int	of	singv	531s264	e.1.05	of-with	2b	70	2	3.75	locp	unint	with	singv	531s172	e.5.24	clausal	2b	223	2.31	4.5	locp	int	NA	singv	532s35	e.23.15	for-of-with	4a	57	5.5	7	locp	unint	with	singv	532s158	e.23.16	for-of-with	3b	168	5.67	6.86	locs	unint	with	pluralv	533s57	e.5.33	clausal	3a	108	3.56	3.88	locp	unint	NA	singv	533s66	e.1.11	of-with	3b	140	4.42	5.1	locp	int	of	singv	533s67	e.4.20	with-attr-acc	4a	253	6	5.55	locp	int	with	singv	533s12	e.1.16	of-with	3b	163	2.5	4.5	locs	unint	with	singv	534s67	e.5.29	clausal	4a	159	3.81	5.44	locs	int	NA	singv	534s142	e.23.18	for-of-with	3b	135	4.42	6.92	locs	int	of	singv	535s172	e.5.19	clausal	2b	208	2.31	4.75	locp	unint	NA	singv	535s46	e.1.05	of-with	1b	187	3	3.9	locp	int	of	singv	535s52	e.4.06	with-attr-acc	4b	163	6	4.18	locs	int	with	singv	535s67	e.5.34	clausal	4a	44	2.5	4.5	locp	unint	NA	singv	535s67	e.5.11	clausal	4a	221	2.75	4.75	locs	unint	NA	singv	535s71	e.5.03	clausal	2a	61	3.44	5.88	locp	int	NA	singv	535s46	e.4.20	with-attr-acc	1b	220	3.83	3.27	locp	unint	with	singv	536s17	e.5.20	clausal	2b	155	2.75	3.63	locp	int	NA	singv	537s163	e.1.04	of-with	2a	87	4.17	5.15	locs	int	of	singv	538s175	e.5.15	clausal	4a	87	2.63	5.25	locs	unint	NA	singv	538s52	e.5.13	clausal	4b	212	3.75	6	locp	unint	NA	singv	538s172	e.5.32	clausal	2b	194	3.19	5.13	locp	unint	NA	singv	539s35	e.1.24	of-with	4a	91	4.75	3.8	locp	int	of	singv	539s39	e.23.14	for-of-with	2a	211	5.5	6.15	locs	unint	with	singv	539s52	e.4.05	with-attr-acc	4b	217	4.17	5.82	locs	unint	with	singv	539s158	e.5.29	clausal	3b	208	3.69	4.75	locp	unint	NA	singv	540s19	e.4.05	with-attr-acc	4a	106	4.17	5.82	locs	unint	with	singv	540s22	e.5.24	clausal	1b	231	2.25	4.5	locs	unint	NA	singv	540s31	e.23.05	for-of-with	2a	204	4.83	5.69	locs	unint	with	singv	540s7	e.4.18	with-attr-acc	4a	139	6	6.55	locs	int	with	singv	540s264	e.1.06	of-with	2b	41	4.58	4.8	locp	int	of	singv	541s175	e.4.05	with-attr-acc	4a	106	4.17	5.82	locs	unint	with	singv	542s19	e.23.14	for-of-with	4a	146	5.5	6.64	locs	int	for	singv	542s34	e.23.19	for-of-with	3b	237	4.58	6.64	locp	int	for	singv	542s141	e.23.06	for-of-with	3a	34	5	6.07	locs	unint	with	singv	543s264	e.1.02	of-with	2b	215	4.83	5.5	locp	int	of	singv	543s264	e.5.11	clausal	2b	253	2.19	5.78	locp	unint	NA	singv	543s69	e.1.22	of-with	1a	208	2.25	2.15	locs	unint	with	singv	543s46	e.5.06	clausal	1b	219	4.38	5	locp	int	NA	singv	544s57	e.23.09	for-of-with	3a	106	4.25	4.69	locp	int	of	singv	544s71	e.5.29	clausal	2a	74	4.25	6	locp	int	NA	singv	544s12	e.23.18	for-of-with	3b	135	4.42	6.92	locs	int	of	singv	545s172	e.23.15	for-of-with	2b	147	5.92	6.77	locp	int	of	singv	545s19	e.5.30	clausal	4a	148	3.56	5.25	locp	unint	NA	singv	546s43	e.5.20	clausal	4a	195	2.94	4.13	locs	int	NA	singv	546s158	e.23.09	for-of-with	3b	217	4.25	4.69	locp	int	of	singv	547s175	e.23.11	for-of-with	4a	152	3.25	5.36	locs	unint	with	singv	547s33	e.1.20	of-with	3a	213	5	5.2	locs	unint	with	singv	547s22	e.5.26	clausal	1b	244	3.31	5	locs	int	NA	singv	548s39	e.5.13	clausal	2a	103	3.38	6.38	locs	unint	NA	singv	548s73	e.5.30	clausal	3a	148	5.44	5.89	locp	int	NA	singv	548s165	e.1.11	of-with	3a	251	4.42	5.1	locp	int	of	singv	549s19	e.23.05	for-of-with	4a	244	5.17	5.77	locs	int	of	singv	549s6	e.4.15	with-attr-acc	3a	193	4.67	4.18	locp	int	with	pluralv	549s71	e.4.23	with-attr-acc	2a	167	2.17	3.18	locs	unint	with	singv	549s74	e.5.28	clausal	3b	215	2.75	4.75	locs	int	NA	singv	549s172	e.4.13	with-attr-acc	2b	191	2.17	4.36	locp	unint	with	singv	550s175	e.5.05	clausal	4a	215	4.75	5.33	locp	int	NA	singv	550s62	e.4.02	with-attr-acc	1b	155	2.67	3.64	locs	unint	with	singv	550s73	e.23.14	for-of-with	3a	218	5.5	6.93	locp	unint	with	singv	550s12	e.4.02	with-attr-acc	3b	155	3.25	3.82	locp	unint	with	singv	551s168	e.23.15	for-of-with	4b	168	5.5	7	locp	unint	with	singv	551s35	e.23.19	for-of-with	4a	249	4.58	5.57	locs	unint	with	singv	551s54	e.1.20	of-with	1b	128	4.92	4.9	locp	unint	with	singv	551s38	e.5.30	clausal	1b	145	5.44	6	locs	int	NA	singv	552s57	e.4.11	with-attr-acc	3a	66	5.25	3.82	locp	int	with	singv	552s6	e.4.05	with-attr-acc	3a	137	4.08	5	locs	int	with	singv	552s67	e.1.24	of-with	4a	91	4.75	3.8	locp	int	of	singv	552s156	e.5.24	clausal	2b	223	2.31	4.5	locp	int	NA	singv	553s175	e.1.14	of-with	4a	157	3.5	4.75	locs	int	of	singv	553s19	e.23.16	for-of-with	4a	163	4.83	5.77	locp	unint	with	singv	553s22	e.5.04	clausal	1b	124	3.31	5.56	locs	int	NA	singv	553s39	e.5.14	clausal	2a	199	2.81	5.13	locs	int	NA	singv	553s7	e.5.30	clausal	4a	148	3.56	5.25	locp	unint	NA	singv	553s71	e.5.09	clausal	2a	114	2.63	5.88	locs	unint	NA	singv	553s19	e.4.17	with-attr-acc	4a	237	4.25	3.73	locs	unint	with	singv	554s22	e.5.03	clausal	1b	172	2.19	4.63	locs	unint	NA	singv	554s6	e.4.20	with-attr-acc	3a	133	3.83	4.82	locs	unint	with	singv	554s142	e.23.16	for-of-with	3b	168	5.67	6.86	locs	unint	with	singv	555s19	e.1.08	of-with	4a	133	4.92	3.7	locp	int	of	singv	555s33	e.5.10	clausal	3a	197	3.63	5.44	locs	unint	NA	singv	555s40	e.4.24	with-attr-acc	2b	113	5	6.55	locs	int	with	singv	555s67	e.23.10	for-of-with	4a	99	4.67	3.31	locp	int	of	singv	555s16	e.1.17	of-with	1b	60	2.83	5.45	locp	int	of	singv	556s24	e.4.07	with-attr-acc	2b	255	3.25	5	locs	unint	with	singv	556s28	e.5.33	clausal	4b	124	4.44	5.25	locs	int	NA	singv	556s31	e.1.08	of-with	2a	163	4.33	4.55	locs	int	of	singv	556s264	e.23.20	for-of-with	2b	181	4.36	5.57	locs	unint	with	singv	557s33	e.5.03	clausal	3a	237	2.94	5.63	locp	unint	NA	singv	557s11	e.5.32	clausal	2a	83	3.19	5.13	locp	unint	NA	singv	558s17	e.5.22	clausal	2b	140	3.88	5.88	locs	int	NA	singv	558s39	e.5.18	clausal	2a	229	2.63	5.5	locs	int	NA	singv	558s43	e.1.04	of-with	4a	246	4.08	4.25	locp	int	of	singv	558s29	e.5.03	clausal	1a	61	2.19	4.63	locs	unint	NA	singv	559s49	e.4.05	with-attr-acc	3a	137	4.08	5	locs	int	with	singv	559s55	e.5.34	clausal	2a	249	2.69	5.5	locs	unint	NA	singv	559s5	e.4.04	with-attr-acc	3a	91	3.08	5.36	locs	unint	with	pluralv	561s142	e.23.10	for-of-with	3b	116	5.25	4.54	locs	int	of	singv	562s150	e.5.23	clausal	3b	206	5.81	5.25	locs	int	NA	singv	562s46	e.1.24	of-with	1b	152	3.58	4.15	locp	unint	with	singv	562s49	e.5.22	clausal	3a	131	2.63	4.38	locs	unint	NA	singv	562s5	e.5.03	clausal	3a	237	2.94	5.63	locp	unint	NA	singv	562s52	e.5.31	clausal	4b	206	2.44	5.5	locp	int	NA	singv	562s150	e.5.17	clausal	3b	147	4.75	5	locp	int	NA	singv	563s172	e.1.01	of-with	2b	250	2.58	4.6	locp	unint	with	singv	563s23	e.5.12	clausal	2a	159	3.13	4.38	locp	int	NA	singv	563s156	e.1.17	of-with	2b	230	3.42	4.7	locp	unint	with	singv	564s172	e.23.18	for-of-with	2b	196	4.92	6.38	locp	unint	with	singv	564s264	e.1.21	of-with	2b	212	4.67	4.7	locp	unint	with	singv	564s46	e.4.01	with-attr-acc	1b	82	6.08	6.45	locp	int	with	singv	564s52	e.4.08	with-attr-acc	4b	74	6.58	5.27	locp	int	with	singv	564s165	e.1.24	of-with	3a	89	3.17	4.45	locs	unint	with	singv	565s172	e.4.16	with-attr-acc	2b	165	5.75	5.45	locs	int	with	singv	565s6	e.5.15	clausal	3a	205	2.44	4.63	locs	int	NA	singv	565s12	e.23.11	for-of-with	3b	179	3.67	5.18	locp	int	for	singv	566s19	e.4.15	with-attr-acc	4a	70	3.08	3.55	locp	unint	with	singv	566s264	e.23.14	for-of-with	2b	100	5.5	6.15	locs	unint	with	singv	566s38	e.1.24	of-with	1b	152	3.58	4.15	locp	unint	with	singv	566s38	e.1.11	of-with	1b	113	5.25	4.9	locs	int	of	singv	566s39	e.5.34	clausal	2a	249	2.69	5.5	locs	unint	NA	singv	566s141	e.5.34	clausal	3a	146	2.38	5.63	locp	int	NA	singv	567s18	e.4.17	with-attr-acc	3b	58	6.42	6.36	locs	int	with	singv	567s6	e.5.33	clausal	3a	108	3.56	3.88	locp	unint	NA	singv	567s19	e.5.32	clausal	4a	227	3.75	4.63	locs	unint	NA	singv	568s22	e.5.30	clausal	1b	145	5.44	6	locs	int	NA	singv	568s33	e.23.17	for-of-with	3a	129	5.75	6.54	locp	int	of	singv	568s49	e.23.07	for-of-with	3a	101	4.33	5.69	locp	unint	with	singv	568s57	e.23.05	for-of-with	3a	139	3.75	6.15	locp	unint	with	singv	568s16	e.5.34	clausal	1b	248	3.38	6	locs	int	NA	singv	569s43	e.23.18	for-of-with	4a	144	4.92	7	locp	int	of	singv	569s142	e.4.05	with-attr-acc	3b	248	4.08	5	locs	int	with	singv	570s32	e.5.01	clausal	2b	219	4.75	4.63	locp	unint	NA	singv	570s57	e.5.05	clausal	3a	239	3.06	4.5	locs	unint	NA	singv	570s172	e.5.11	clausal	2b	253	2.19	5.78	locp	unint	NA	singv	571s33	e.5.28	clausal	3a	104	2.75	4.75	locs	int	NA	singv	571s57	e.5.29	clausal	3a	97	3.69	4.75	locp	unint	NA	singv	571s67	e.5.06	clausal	4a	161	2.88	5.88	locs	unint	NA	singv	571s7	e.23.17	for-of-with	4a	218	5.58	6.46	locs	unint	with	singv	571s12	e.5.15	clausal	3b	94	2.44	4.63	locs	int	NA	singv	572s35	e.5.05	clausal	4a	215	4.75	5.33	locp	int	NA	singv	572s5	e.1.14	of-with	3a	70	4.33	4.85	locp	unint	with	singv	572s73	e.23.13	for-of-with	3a	231	4	6.27	locs	int	for	singv	572s8	e.23.13	for-of-with	4b	191	3.5	5.09	locp	int	for	pluralv	572s15	e.4.04	with-attr-acc	2a	146	4	5.45	locs	int	with	singv	573s163	e.4.18	with-attr-acc	2a	197	6.42	6.45	locp	int	with	singv	573s18	e.4.11	with-attr-acc	3b	177	5.25	3.82	locp	int	with	singv	573s57	e.5.20	clausal	3a	80	2.13	4.25	locp	unint	NA	singv	573s71	e.4.10	with-attr-acc	2a	213	5.33	5.73	locp	int	with	singv	573s51	e.4.18	with-attr-acc	4a	139	6	6.55	locs	int	with	singv	574s57	e.1.20	of-with	3a	213	5	5.2	locs	unint	with	singv	574s71	e.1.15	of-with	2a	68	4.25	3.8	locs	unint	with	singv	574s34	e.23.12	for-of-with	3b	253	4.33	5.08	locp	unint	with	singv	575s35	e.4.18	with-attr-acc	4a	139	6	6.55	locs	int	with	singv	575s43	e.1.19	of-with	4a	76	5.67	4.35	locp	unint	with	pluralv	575s43	e.4.05	with-attr-acc	4a	106	4.17	5.82	locs	unint	with	singv	575s43	e.5.15	clausal	4a	87	2.63	5.25	locs	unint	NA	singv	575s57	e.4.20	with-attr-acc	3a	133	3.83	4.82	locs	unint	with	singv	575s142	e.23.15	for-of-with	3b	56	5.5	6.77	locs	unint	with	singv	576s142	e.5.27	clausal	3b	225	2.5	4.25	locs	unint	NA	singv	576s158	e.5.26	clausal	3b	246	4.63	4.63	locp	int	NA	pluralv	576s172	e.23.13	for-of-with	2b	149	3.67	4.85	locp	unint	with	singv	576s172	e.1.23	of-with	2b	163	1.42	2.7	locs	unint	with	singv	576s19	e.23.03	for-of-with	4a	255	4.5	5.27	locp	int	for	singv	576s168	e.5.09	clausal	4b	149	2.56	5.88	locp	unint	NA	singv	577s172	e.5.01	clausal	2b	219	4.75	4.63	locp	unint	NA	singv	577s175	e.5.31	clausal	4a	95	2.44	5.5	locp	int	NA	singv	577s18	e.23.05	for-of-with	3b	250	3.75	6.15	locp	unint	with	singv	577s20	e.1.08	of-with	4b	244	4.92	3.7	locp	int	of	singv	577s69	e.1.01	of-with	1a	231	3.42	6.1	locp	int	of	singv	577s7	e.4.08	with-attr-acc	4a	185	6.58	5.27	locp	int	with	singv	577s71	e.1.01	of-with	2a	139	2.58	4.6	locp	unint	with	singv	577s25	e.4.15	with-attr-acc	3a	193	4.67	4.18	locp	int	with	singv	578s49	e.1.18	of-with	3a	123	2.17	3.05	locp	unint	with	singv	578s57	e.23.17	for-of-with	3a	129	5.75	6.54	locp	int	of	singv	578s150	e.5.20	clausal	3b	191	2.13	4.25	locp	unint	NA	singv	579s19	e.4.16	with-attr-acc	4a	40	5.67	5.09	locp	int	with	singv	579s19	e.4.22	with-attr-acc	4a	117	4.58	5.64	locs	int	with	singv	579s22	e.1.19	of-with	1b	158	5.83	6.2	locs	int	of	singv	579s24	e.4.03	with-attr-acc	2b	217	3.83	6	locs	unint	with	singv	579s49	e.4.03	with-attr-acc	3a	224	5.92	6.45	locp	int	with	singv	579s156	e.5.23	clausal	2b	145	3.69	3.63	locp	unint	NA	singv	580s264	e.1.16	of-with	2b	107	3.17	3.9	locs	int	of	singv	580s35	e.4.08	with-attr-acc	4a	185	6.58	5.27	locp	int	with	singv	580s6	e.23.17	for-of-with	3a	129	5.75	6.54	locp	int	of	singv	580s32	e.1.17	of-with	2b	230	3.42	4.7	locp	unint	with	singv	581s43	e.23.05	for-of-with	4a	244	5.17	5.77	locs	int	of	singv	581s46	e.4.18	with-attr-acc	1b	133	2.58	5.55	locs	unint	with	singv	581s71	e.23.04	for-of-with	2a	78	3.17	5.14	locp	unint	with	singv	581s13	e.5.34	clausal	1a	137	3.38	6	locs	int	NA	singv	582s20	e.4.24	with-attr-acc	4b	225	5.92	5.36	locp	int	with	singv	582s49	e.1.11	of-with	3a	251	4.42	5.1	locp	int	of	singv	582s57	e.1.10	of-with	3a	59	3.08	4.45	locp	unint	with	singv	582s22	e.23.14	for-of-with	1b	174	5.33	6.73	locp	int	for	singv	583s31	e.5.06	clausal	2a	126	3.5	6	locp	unint	NA	singv	583s52	e.23.06	for-of-with	4b	185	3.42	5.15	locp	unint	with	singv	583s172	e.5.20	clausal	2b	155	2.75	3.63	locp	int	NA	singv	584s73	e.5.22	clausal	3a	131	2.63	4.38	locs	unint	NA	pluralv	584s17	e.23.16	for-of-with	2b	97	5.42	6.82	locp	int	for	singv	585s18	e.1.01	of-with	3b	77	5	6.55	locs	int	of	singv	585s23	e.4.04	with-attr-acc	2a	146	4	5.45	locs	int	with	singv	585s24	e.4.13	with-attr-acc	2b	191	2.17	4.36	locp	unint	with	pluralv	585s4	e.5.06	clausal	2b	237	3.5	6	locp	unint	NA	singv	585s57	e.23.12	for-of-with	3a	142	4.33	5.08	locp	unint	with	singv	585s172	e.1.10	of-with	2b	158	3.58	5	locp	int	of	singv	586s33	e.4.23	with-attr-acc	3a	157	6.25	5	locp	int	with	singv	586s43	e.5.31	clausal	4a	95	2.44	5.5	locp	int	NA	singv	586s45	e.1.10	of-with	1a	169	3.25	3.7	locs	unint	with	singv	586s7	e.4.23	with-attr-acc	4a	137	2.17	2.45	locp	unint	with	singv	586s168	e.4.19	with-attr-acc	4b	93	3.08	4.36	locp	unint	with	singv	587s5	e.1.08	of-with	3a	195	3.58	4.7	locs	unint	with	singv	587s7	e.1.17	of-with	4a	167	3.92	4.45	locs	unint	with	singv	587s156	e.1.21	of-with	2b	212	4.67	4.7	locp	unint	with	singv	588s264	e.4.15	with-attr-acc	2b	220	3.75	3.18	locs	unint	with	singv	588s35	e.5.34	clausal	4a	44	2.5	4.5	locp	unint	NA	singv	588s57	e.5.04	clausal	3a	47	3.25	5.25	locp	int	NA	singv	588s60	e.1.05	of-with	4b	227	2.58	2.55	locs	unint	with	singv	588s60	e.4.06	with-attr-acc	4b	163	6	4.18	locs	int	with	singv	588s61	e.23.16	for-of-with	1a	167	5.5	5.73	locs	int	for	singv	588s12	e.5.04	clausal	3b	158	3.25	5.25	locp	int	NA	singv	589s142	e.5.32	clausal	3b	104	4.31	5	locs	int	NA	singv	589s156	e.5.32	clausal	2b	194	3.19	5.13	locp	unint	NA	singv	589s19	e.5.12	clausal	4a	47	3.69	5	locs	int	NA	singv	589s21	e.1.04	of-with	1a	253	2.67	3.2	locp	unint	with	singv	589s22	e.1.12	of-with	1b	202	3.58	4	locp	unint	with	singv	589s22	e.5.34	clausal	1b	248	3.38	6	locs	int	NA	singv	589s25	e.23.14	for-of-with	3a	218	5.5	6.93	locp	unint	with	singv	589s264	e.5.19	clausal	2b	208	2.31	4.75	locp	unint	NA	singv	589s38	e.5.12	clausal	1b	107	3.13	4.75	locs	unint	NA	singv	589s49	e.1.23	of-with	3a	63	2.75	3.5	locp	int	of	singv	589s62	e.5.04	clausal	1b	124	3.31	5.56	locs	int	NA	singv	589s7	e.23.12	for-of-with	4a	211	4.67	5.08	locs	int	of	singv	589s74	e.1.18	of-with	3b	234	2.17	3.05	locp	unint	with	singv	589s22	e.4.15	with-attr-acc	1b	80	4.5	5.64	locs	int	with	singv	590s61	e.5.18	clausal	1a	163	2.69	5.25	locp	unint	NA	singv	590s172	e.23.19	for-of-with	2b	228	4.5	5.64	locs	int	for	singv	591s24	e.4.22	with-attr-acc	2b	242	4.92	4.27	locp	int	with	singv	591s43	e.5.34	clausal	4a	44	2.5	4.5	locp	unint	NA	singv	591s44	e.5.05	clausal	4b	104	4.75	5.33	locp	int	NA	singv	591s49	e.23.17	for-of-with	3a	129	5.75	6.54	locp	int	of	pluralv	591s5	e.1.20	of-with	3a	213	5	5.2	locs	unint	with	singv	591s11	e.1.22	of-with	2a	57	2.42	2.8	locp	int	of	pluralv	592s141	e.5.30	clausal	3a	148	5.44	5.89	locp	int	NA	singv	592s165	e.5.34	clausal	3a	146	2.38	5.63	locp	int	NA	singv	592s22	e.5.09	clausal	1b	48	2.5	5.5	locs	int	NA	singv	592s33	e.4.05	with-attr-acc	3a	137	4.08	5	locs	int	with	singv	592s6	e.4.01	with-attr-acc	3a	202	6	5.91	locs	int	with	singv	592s158	e.4.21	with-attr-acc	3b	189	5.42	6.18	locs	int	with	singv	593s18	e.1.22	of-with	3b	204	1.67	2.5	locp	unint	with	singv	593s31	e.5.09	clausal	2a	114	2.63	5.88	locs	unint	NA	singv	593s43	e.5.22	clausal	4a	72	3.31	5.13	locp	int	NA	singv	593s172	e.1.16	of-with	2b	107	3.17	3.9	locs	int	of	singv	594s22	e.4.11	with-attr-acc	1b	200	5.33	4.45	locs	int	with	singv	594s7	e.23.20	for-of-with	4a	213	4.42	5.38	locs	int	of	singv	594s73	e.4.01	with-attr-acc	3a	202	6	5.91	locs	int	with	pluralv	594s163	e.5.03	clausal	2a	61	3.44	5.88	locp	int	NA	singv	595s38	e.23.11	for-of-with	1b	168	3.83	5.15	locp	unint	with	singv	595s60	e.5.03	clausal	4b	79	3.63	5.5	locs	int	NA	singv	595s142	e.5.28	clausal	3b	215	2.75	4.75	locs	int	NA	singv	596s22	e.1.02	of-with	1b	253	3.25	3.75	locs	unint	with	singv	596s22	e.4.02	with-attr-acc	1b	155	2.67	3.64	locs	unint	with	singv	596s141	e.23.18	for-of-with	3a	246	4.42	6.92	locs	int	of	singv	597s165	e.23.13	for-of-with	3a	231	4	6.27	locs	int	for	singv	597s20	e.4.04	with-attr-acc	4b	80	4.42	6.45	locp	int	with	pluralv	597s31	e.4.19	with-attr-acc	2a	191	2.83	5.91	locs	unint	with	singv	597s49	e.23.05	for-of-with	3a	139	3.75	6.15	locp	unint	with	singv	597s142	e.5.34	clausal	3b	35	2.38	5.63	locp	int	NA	singv	598s158	e.1.21	of-with	3b	50	5.33	5.75	locs	int	of	singv	598s264	e.1.13	of-with	2b	110	2.83	4.15	locp	unint	with	singv	598s52	e.5.34	clausal	4b	155	2.5	4.5	locp	unint	NA	singv	598s52	e.23.19	for-of-with	4b	138	4.58	5.57	locs	unint	with	singv	598s7	e.5.05	clausal	4a	215	4.75	5.33	locp	int	NA	singv	598s172	e.5.10	clausal	2b	142	3.31	5.63	locs	int	NA	singv	599s18	e.4.21	with-attr-acc	3b	189	5.42	6.18	locs	int	with	singv	599s264	e.5.28	clausal	2b	152	2.44	3.13	locp	unint	NA	singv	600s35	e.5.13	clausal	4a	101	3.75	6	locp	unint	NA	singv	600s4	e.4.15	with-attr-acc	2b	220	3.75	3.18	locs	unint	with	singv	600s51	e.5.22	clausal	4a	72	3.31	5.13	locp	int	NA	singv	600s51	e.5.08	clausal	4a	197	4.13	5.56	locs	int	NA	singv	600s12	e.5.12	clausal	3b	198	1.94	5.63	locp	unint	NA	singv	601s16	e.1.02	of-with	1b	253	3.25	3.75	locs	unint	with	singv	601s8	e.23.08	for-of-with	4b	128	4.58	6.31	locp	unint	with	singv	601s168	e.23.01	for-of-with	4b	240	2.75	4.46	locp	unint	with	singv	602s172	e.5.03	clausal	2b	172	3.44	5.88	locp	int	NA	singv	602s264	e.1.15	of-with	2b	179	4.25	3.8	locs	unint	with	singv	602s43	e.23.04	for-of-with	4a	126	3.58	5	locp	int	of	singv	602s10	e.23.06	for-of-with	1b	104	5.42	5.69	locs	int	of	singv	603s142	e.5.09	clausal	3b	183	3	4.56	locp	int	NA	singv	603s19	e.1.04	of-with	4a	246	4.08	4.25	locp	int	of	singv	603s264	e.5.06	clausal	2b	237	3.5	6	locp	unint	NA	singv	603s5	e.5.15	clausal	3a	205	2.44	4.63	locs	int	NA	singv	603s74	e.23.09	for-of-with	3b	217	4.25	4.69	locp	int	of	singv	603s12	e.23.12	for-of-with	3b	253	4.33	5.08	locp	unint	with	singv	604s142	e.4.12	with-attr-acc	3b	194	5.08	5.55	locs	unint	with	singv	604s163	e.5.19	clausal	2a	97	2.31	4.75	locp	unint	NA	singv	604s7	e.23.19	for-of-with	4a	249	4.58	5.57	locs	unint	with	singv	604s71	e.23.14	for-of-with	2a	211	5.5	6.15	locs	unint	with	singv	604s158	e.4.12	with-attr-acc	3b	194	5.08	5.55	locs	unint	with	pluralv	605s19	e.4.23	with-attr-acc	4a	137	2.17	2.45	locp	unint	with	singv	605s31	e.1.15	of-with	2a	68	4.25	3.8	locs	unint	with	singv	605s46	e.4.07	with-attr-acc	1b	210	6.25	5.45	locs	int	with	singv	605s61	e.23.15	for-of-with	1a	116	5.83	6.86	locs	int	of	singv	605s67	e.5.16	clausal	4a	83	4.94	4.75	locs	int	NA	singv	605s165	e.23.05	for-of-with	3a	139	3.75	6.15	locp	unint	with	singv	606s34	e.5.01	clausal	3b	151	4.81	6.33	locs	int	NA	singv	606s35	e.5.20	clausal	4a	195	2.94	4.13	locs	int	NA	singv	606s43	e.5.32	clausal	4a	227	3.75	4.63	locs	unint	NA	singv	606s44	e.4.24	with-attr-acc	4b	225	5.92	5.36	locp	int	with	singv	606s44	e.4.18	with-attr-acc	4b	250	6	6.55	locs	int	with	singv	606s52	e.23.10	for-of-with	4b	210	4.67	3.31	locp	int	of	singv	606s57	e.1.19	of-with	3a	181	5.5	5.85	locp	int	of	singv	606s71	e.1.08	of-with	2a	163	4.33	4.55	locs	int	of	singv	606s12	e.4.14	with-attr-acc	3b	133	3.25	3.82	locp	unint	with	singv	607s142	e.23.19	for-of-with	3b	237	4.58	6.64	locp	int	for	singv	607s17	e.1.04	of-with	2b	198	4.17	5.15	locs	int	of	singv	607s17	e.4.08	with-attr-acc	2b	246	6.17	5.73	locs	int	with	singv	607s19	e.1.05	of-with	4a	116	2.58	2.55	locs	unint	with	singv	607s22	e.5.32	clausal	1b	234	3.56	5	locp	int	NA	singv	607s43	e.4.24	with-attr-acc	4a	114	5.92	5.36	locp	int	with	singv	607s127	e.5.19	clausal	4a	224	1.63	4.89	locs	unint	NA	singv	608s142	e.1.14	of-with	3b	181	4.33	4.85	locp	unint	with	singv	608s156	e.23.06	for-of-with	2b	135	3.92	5.38	locp	int	of	singv	608s172	e.1.09	of-with	2b	248	4.33	4.5	locp	unint	with	singv	608s264	e.5.30	clausal	2b	82	4.56	4.38	locs	unint	NA	singv	608s31	e.23.06	for-of-with	2a	246	3.92	5.38	locp	int	of	singv	608s6	e.5.29	clausal	3a	97	3.69	4.75	locp	unint	NA	singv	608s4	e.5.16	clausal	2b	234	5.06	5.63	locp	int	NA	singv	609s49	e.1.05	of-with	3a	190	3.25	4.85	locs	int	of	singv	609s5	e.5.14	clausal	3a	255	2.38	5.33	locs	unint	NA	singv	609s57	e.1.24	of-with	3a	89	3.17	4.45	locs	unint	with	singv	609s71	e.4.05	with-attr-acc	2a	239	4.67	5.27	locp	unint	with	singv	609s16	e.1.15	of-with	1b	151	5.17	5	locs	int	of	singv	610s18	e.23.15	for-of-with	3b	56	5.5	6.77	locs	unint	with	singv	610s4	e.5.12	clausal	2b	48	3.13	4.38	locp	int	NA	singv	610s57	e.5.34	clausal	3a	146	2.38	5.63	locp	int	NA	singv	610s158	e.5.03	clausal	3b	126	2.94	5.63	locp	unint	NA	pluralv	611s163	e.5.24	clausal	2a	112	2.31	4.5	locp	int	NA	singv	611s168	e.4.02	with-attr-acc	4b	219	5.17	5.45	locs	int	with	singv	611s175	e.23.04	for-of-with	4a	126	3.58	5	locp	int	of	singv	611s22	e.23.01	for-of-with	1b	116	4.25	4.91	locs	int	for	singv	611s23	e.5.33	clausal	2a	205	5.06	5.5	locp	int	NA	singv	611s264	e.4.03	with-attr-acc	2b	217	3.83	6	locs	unint	with	singv	611s71	e.23.07	for-of-with	2a	66	3.5	6	locs	unint	with	singv	611s156	e.23.12	for-of-with	2b	68	4.5	5.92	locs	unint	with	singv	612s168	e.5.14	clausal	4b	145	2.13	4.5	locp	int	NA	singv	612s20	e.5.33	clausal	4b	124	4.44	5.25	locs	int	NA	singv	612s19	e.1.19	of-with	4a	76	5.67	4.35	locp	unint	with	singv	613s22	e.5.33	clausal	1b	177	3.31	4.38	locs	unint	NA	singv	613s52	e.5.06	clausal	4b	50	2.88	5.88	locs	unint	NA	singv	613s62	e.4.11	with-attr-acc	1b	200	5.33	4.45	locs	int	with	singv	613s69	e.4.05	with-attr-acc	1a	179	5.42	6.55	locp	int	with	singv	613s172	e.1.02	of-with	2b	215	4.83	5.5	locp	int	of	singv	614s18	e.1.11	of-with	3b	140	4.42	5.1	locp	int	of	pluralv	614s19	e.23.19	for-of-with	4a	249	4.58	5.57	locs	unint	with	singv	614s23	e.5.32	clausal	2a	83	3.19	5.13	locp	unint	NA	singv	614s38	e.4.19	with-attr-acc	1b	206	5.58	5.82	locs	int	with	singv	614s57	e.5.18	clausal	3a	74	2.69	5.63	locs	unint	NA	singv	614s12	e.23.14	for-of-with	3b	107	5.5	6.93	locp	unint	with	singv	615s142	e.5.15	clausal	3b	94	2.44	4.63	locs	int	NA	singv	615s163	e.23.13	for-of-with	2a	38	3.67	4.85	locp	unint	with	singv	615s163	e.23.15	for-of-with	2a	36	5.92	6.77	locp	int	of	singv	615s32	e.23.01	for-of-with	2b	202	3.58	6.09	locp	int	for	singv	615s33	e.4.11	with-attr-acc	3a	66	5.25	3.82	locp	int	with	singv	615s142	e.5.20	clausal	3b	191	2.13	4.25	locp	unint	NA	singv	616s158	e.4.05	with-attr-acc	3b	248	4.08	5	locs	int	with	singv	616s165	e.5.01	clausal	3a	40	4.81	6.33	locs	int	NA	singv	616s168	e.5.36	clausal	4b	220	1.75	5.75	locp	int	NA	singv	616s168	e.1.05	of-with	4b	227	2.58	2.55	locs	unint	with	singv	616s18	e.5.13	clausal	3b	138	4.38	6	locp	int	NA	singv	616s19	e.1.06	of-with	4a	93	3.25	5.25	locs	int	of	singv	616s19	e.1.22	of-with	4a	78	2.92	3.2	locs	int	of	singv	616s20	e.4.05	with-attr-acc	4b	217	4.17	5.82	locs	unint	with	singv	616s52	e.4.18	with-attr-acc	4b	250	6	6.55	locs	int	with	singv	616s67	e.5.13	clausal	4a	101	3.75	6	locp	unint	NA	singv	616s71	e.5.13	clausal	2a	103	3.38	6.38	locs	unint	NA	singv	616s175	e.1.16	of-with	4a	155	4.08	2.4	locp	int	of	singv	617s19	e.4.13	with-attr-acc	4a	150	2.42	4.18	locs	unint	with	singv	617s43	e.5.16	clausal	4a	83	4.94	4.75	locs	int	NA	singv	617s141	e.1.01	of-with	3a	188	5	6.55	locs	int	of	singv	618s172	e.5.18	clausal	2b	118	2.63	5.5	locs	int	NA	singv	618s20	e.23.18	for-of-with	4b	255	4.92	7	locp	int	of	singv	618s38	e.23.13	for-of-with	1b	237	3.33	5	locs	unint	with	singv	618s57	e.23.01	for-of-with	3a	221	3.83	4.54	locs	unint	with	singv	618s163	e.1.10	of-with	2a	47	3.58	5	locp	int	of	singv	619s31	e.23.18	for-of-with	2a	85	4.92	6.38	locp	unint	with	singv	619s46	e.4.13	with-attr-acc	1b	144	5.67	6.55	locp	int	with	singv	619s43	e.23.16	for-of-with	4a	163	4.83	5.77	locp	unint	with	singv	620s57	e.1.04	of-with	3a	54	2.25	3	locs	unint	with	singv	620s6	e.23.05	for-of-with	3a	139	3.75	6.15	locp	unint	with	singv	620s71	e.4.14	with-attr-acc	2a	190	5.83	6.55	locp	int	with	singv	620s8	e.5.31	clausal	4b	206	2.44	5.5	locp	int	NA	singv	620s172	e.1.13	of-with	2b	110	2.83	4.15	locp	unint	with	pluralv	621s38	e.4.21	with-attr-acc	1b	88	5.75	6.36	locp	int	with	singv	621s39	e.5.12	clausal	2a	159	3.13	4.38	locp	int	NA	singv	621s57	e.4.01	with-attr-acc	3a	202	6	5.91	locs	int	with	singv	621s10	e.1.18	of-with	1b	240	2.83	2.9	locs	unint	with	singv	622s142	e.23.05	for-of-with	3b	250	3.75	6.15	locp	unint	with	singv	622s156	e.4.19	with-attr-acc	2b	80	2.83	5.91	locs	unint	with	singv	622s172	e.1.18	of-with	2b	174	3.75	3.05	locp	int	of	singv	622s19	e.4.10	with-attr-acc	4a	229	5.75	5.91	locs	int	with	singv	622s22	e.5.27	clausal	1b	86	2.67	4.5	locp	unint	NA	singv	622s57	e.1.14	of-with	3a	70	4.33	4.85	locp	unint	with	singv	622s67	e.4.07	with-attr-acc	4a	179	1.58	3.64	locp	unint	with	pluralv	622s12	e.1.11	of-with	3b	140	4.42	5.1	locp	int	of	singv	623s12	e.5.05	clausal	3b	128	3.06	4.5	locs	unint	NA	singv	623s12	e.5.28	clausal	3b	215	2.75	4.75	locs	int	NA	singv	623s141	e.23.14	for-of-with	3a	218	5.5	6.93	locp	unint	with	singv	623s142	e.4.15	with-attr-acc	3b	82	4.67	4.18	locp	int	with	singv	623s150	e.23.04	for-of-with	3b	149	3.83	5.08	locs	int	of	singv	623s172	e.4.21	with-attr-acc	2b	124	3.92	3.09	locp	unint	with	singv	623s19	e.23.13	for-of-with	4a	80	3.5	5.09	locp	int	for	singv	623s39	e.1.19	of-with	2a	237	5.33	3.25	locs	unint	with	singv	623s49	e.5.08	clausal	3a	76	3.31	5	locp	unint	NA	singv	624s49	e.4.01	with-attr-acc	3a	202	6	5.91	locs	int	with	singv	624s11	e.5.21	clausal	2a	89	2.44	4	locs	unint	NA	singv	625s18	e.4.08	with-attr-acc	3b	255	2	3.64	locs	unint	with	singv	625s43	e.5.36	clausal	4a	109	1.75	5.75	locp	int	NA	singv	625s12	e.5.03	clausal	3b	126	2.94	5.63	locp	unint	NA	singv	626s12	e.5.23	clausal	3b	206	5.81	5.25	locs	int	NA	singv	626s39	e.5.27	clausal	2a	244	2.5	5.5	locs	int	NA	singv	626s11	e.1.01	of-with	2a	139	2.58	4.6	locp	unint	with	singv	627s150	e.5.18	clausal	3b	185	2.69	5.63	locs	unint	NA	singv	627s158	e.1.02	of-with	3b	172	3.33	3.85	locp	unint	with	singv	627s264	e.4.05	with-attr-acc	2b	128	4.67	5.27	locp	unint	with	singv	627s32	e.23.07	for-of-with	2b	177	3.5	6	locs	unint	with	singv	627s39	e.1.21	of-with	2a	101	4.67	4.7	locp	unint	with	singv	627s5	e.23.10	for-of-with	3a	227	5.25	4.54	locs	int	of	singv	627s51	e.23.12	for-of-with	4a	211	4.67	5.08	locs	int	of	singv	627s70	e.5.30	clausal	1b	145	5.44	6	locs	int	NA	singv	627s19	e.23.15	for-of-with	4a	57	5.5	7	locp	unint	with	singv	628s22	e.1.07	of-with	1b	225	5.33	4.05	locs	int	of	singv	628s71	e.5.27	clausal	2a	244	2.5	5.5	locs	int	NA	singv	628s12	e.5.20	clausal	3b	191	2.13	4.25	locp	unint	NA	singv	629s172	e.4.22	with-attr-acc	2b	242	4.92	4.27	locp	int	with	singv	629s264	e.4.04	with-attr-acc	2b	35	4	5.45	locs	int	with	singv	629s264	e.4.20	with-attr-acc	2b	240	6	6.18	locs	int	with	singv	629s264	e.5.18	clausal	2b	118	2.63	5.5	locs	int	NA	singv	629s73	e.4.18	with-attr-acc	3a	241	3.58	5.09	locp	unint	with	singv	629s17	e.5.05	clausal	2b	151	4.31	5.25	locs	int	NA	singv	630s175	e.4.14	with-attr-acc	4a	119	6.08	6.36	locs	int	with	singv	630s24	e.1.08	of-with	2b	52	4.33	4.55	locs	int	of	singv	630s52	e.23.09	for-of-with	4b	174	4.33	5.36	locs	unint	with	singv	630s57	e.5.11	clausal	3a	185	2.94	5.38	locs	int	NA	singv	630s57	e.5.14	clausal	3a	255	2.38	5.33	locs	unint	NA	singv	630s15	e.5.18	clausal	2a	229	2.63	5.5	locs	int	NA	singv	631s172	e.23.04	for-of-with	2b	189	3.17	5.14	locp	unint	with	singv	631s35	e.5.03	clausal	4a	190	3.63	5.5	locs	int	NA	singv	631s19	e.1.12	of-with	4a	199	3.92	5.85	locp	int	of	pluralv	632s19	e.5.11	clausal	4a	221	2.75	4.75	locs	unint	NA	singv	632s264	e.5.08	clausal	2b	46	4.19	5	locp	int	NA	singv	632s4	e.1.12	of-with	2b	58	4.42	6.45	locs	int	of	singv	632s12	e.4.11	with-attr-acc	3b	177	5.25	3.82	locp	int	with	singv	633s141	e.5.23	clausal	3a	95	5.81	5.25	locs	int	NA	singv	633s22	e.5.29	clausal	1b	242	3	4.88	locs	unint	NA	singv	633s32	e.23.06	for-of-with	2b	135	3.92	5.38	locp	int	of	singv	633s71	e.1.09	of-with	2a	137	4.33	4.5	locp	unint	with	singv	633s141	e.5.19	clausal	3a	171	2.75	5.38	locs	int	NA	singv	634s17	e.4.20	with-attr-acc	2b	240	6	6.18	locs	int	with	singv	634s264	e.4.17	with-attr-acc	2b	91	4.75	5.09	locp	unint	with	singv	634s31	e.4.05	with-attr-acc	2a	239	4.67	5.27	locp	unint	with	singv	634s46	e.4.19	with-attr-acc	1b	206	5.58	5.82	locs	int	with	singv	634s18	e.23.12	for-of-with	3b	253	4.33	5.08	locp	unint	with	singv	635s23	e.4.18	with-attr-acc	2a	197	6.42	6.45	locp	int	with	singv	635s25	e.5.33	clausal	3a	108	3.56	3.88	locp	unint	NA	singv	635s43	e.4.22	with-attr-acc	4a	117	4.58	5.64	locs	int	with	singv	635s19	e.23.12	for-of-with	4a	211	4.67	5.08	locs	int	of	singv	636s43	e.23.17	for-of-with	4a	218	5.58	6.46	locs	unint	with	singv	636s6	e.4.19	with-attr-acc	3a	152	4.92	5.36	locp	int	with	singv	636s20	e.4.20	with-attr-acc	4b	142	6	5.55	locp	int	with	singv	637s39	e.1.03	of-with	2a	176	2.58	2.5	locs	unint	with	singv	637s46	e.4.17	with-attr-acc	1b	147	6.42	6.09	locp	int	with	singv	637s5	e.23.02	for-of-with	3a	174	2.75	6.36	locp	int	for	singv	637s61	e.5.11	clausal	1a	249	3.31	5.75	locp	int	NA	singv	637s142	e.5.05	clausal	3b	128	3.06	4.5	locs	unint	NA	singv	638s165	e.23.10	for-of-with	3a	227	5.25	4.54	locs	int	of	singv	638s17	e.23.06	for-of-with	2b	135	3.92	5.38	locp	int	of	singv	638s264	e.5.33	clausal	2b	94	5.06	5.5	locp	int	NA	singv	638s163	e.4.13	with-attr-acc	2a	80	2.17	4.36	locp	unint	with	singv	639s168	e.5.27	clausal	4b	179	2.88	5.88	locp	int	NA	singv	639s46	e.1.03	of-with	1b	185	4	3.45	locs	int	of	singv	639s7	e.1.20	of-with	4a	208	4.83	6.2	locp	int	of	pluralv	639s163	e.1.17	of-with	2a	119	3.42	4.7	locp	unint	with	singv	640s29	e.4.02	with-attr-acc	1a	44	2.67	3.64	locs	unint	with	singv	640s46	e.1.01	of-with	1b	120	3.42	6.1	locp	int	of	pluralv	640s49	e.5.03	clausal	3a	237	2.94	5.63	locp	unint	NA	singv	640s5	e.5.06	clausal	3a	208	4.44	5.38	locs	int	NA	singv	640s7	e.5.19	clausal	4a	224	1.63	4.89	locs	unint	NA	singv	640s73	e.23.08	for-of-with	3a	204	4.92	6.15	locs	unint	with	singv	640s127	e.4.19	with-attr-acc	4a	204	3.08	4.36	locp	unint	with	singv	641s175	e.4.24	with-attr-acc	4a	114	5.92	5.36	locp	int	with	singv	641s175	e.5.32	clausal	4a	227	3.75	4.63	locs	unint	NA	singv	641s7	e.23.18	for-of-with	4a	144	4.92	7	locp	int	of	singv	641s12	e.23.10	for-of-with	3b	116	5.25	4.54	locs	int	of	singv	642s16	e.23.16	for-of-with	1b	56	5.5	5.73	locs	int	for	singv	642s264	e.1.09	of-with	2b	248	4.33	4.5	locp	unint	with	singv	642s264	e.23.08	for-of-with	2b	244	5	4.91	locp	int	for	singv	642s38	e.5.24	clausal	1b	231	2.25	4.5	locs	unint	NA	singv	642s39	e.1.11	of-with	2a	155	5.08	5.05	locs	unint	with	singv	642s46	e.4.04	with-attr-acc	1b	44	3.83	4.91	locp	unint	with	singv	642s60	e.5.34	clausal	4b	155	2.5	4.5	locp	unint	NA	singv	642s62	e.1.19	of-with	1b	158	5.83	6.2	locs	int	of	singv	642s7	e.4.14	with-attr-acc	4a	119	6.08	6.36	locs	int	with	singv	642s73	e.4.07	with-attr-acc	3a	117	5.91	5.45	locp	int	with	singv	642s16	e.4.01	with-attr-acc	1b	82	6.08	6.45	locp	int	with	singv	643s31	e.23.14	for-of-with	2a	211	5.5	6.15	locs	unint	with	singv	643s73	e.1.17	of-with	3a	150	3.67	5.85	locs	int	of	singv	643s39	e.5.11	clausal	2a	142	2.19	5.78	locp	unint	NA	singv	644s150	e.5.03	clausal	3b	126	2.94	5.63	locp	unint	NA	singv	645s156	e.23.05	for-of-with	2b	93	4.83	5.69	locs	unint	with	singv	645s175	e.4.22	with-attr-acc	4a	117	4.58	5.64	locs	int	with	singv	645s25	e.4.03	with-attr-acc	3a	224	5.92	6.45	locp	int	with	singv	645s38	e.5.10	clausal	1b	165	2.88	4.13	locp	unint	NA	singv	645s38	e.1.22	of-with	1b	97	2.25	2.15	locs	unint	with	singv	645s39	e.5.24	clausal	2a	112	2.31	4.5	locp	int	NA	singv	645s52	e.5.21	clausal	4b	165	2.25	4.88	locp	unint	NA	singv	645s52	e.5.36	clausal	4b	220	1.75	5.75	locp	int	NA	singv	645s49	e.1.17	of-with	3a	150	3.67	5.85	locs	int	of	singv	646s54	e.23.11	for-of-with	1b	168	3.83	5.15	locp	unint	with	singv	646s7	e.1.12	of-with	4a	199	3.92	5.85	locp	int	of	singv	646s12	e.5.30	clausal	3b	37	5.44	5.89	locp	int	NA	singv	647s142	e.5.04	clausal	3b	158	3.25	5.25	locp	int	NA	singv	647s150	e.1.15	of-with	3b	223	3.67	4.3	locp	int	of	singv	647s38	e.4.02	with-attr-acc	1b	155	2.67	3.64	locs	unint	with	singv	647s5	e.1.03	of-with	3a	99	3.75	3.05	locp	int	of	singv	647s5	e.5.24	clausal	3a	155	2.06	2.63	locp	unint	NA	singv	647s12	e.23.05	for-of-with	3b	250	3.75	6.15	locp	unint	with	singv	648s168	e.1.22	of-with	4b	189	2.92	3.2	locs	int	of	singv	648s24	e.23.15	for-of-with	2b	147	5.92	6.77	locp	int	of	singv	648s43	e.1.17	of-with	4a	167	3.92	4.45	locs	unint	with	singv	648s52	e.1.08	of-with	4b	244	4.92	3.7	locp	int	of	singv	648s6	e.1.03	of-with	3a	99	3.75	3.05	locp	int	of	singv	648s165	e.4.21	with-attr-acc	3a	78	5.42	6.18	locs	int	with	singv	649s168	e.4.20	with-attr-acc	4b	142	6	5.55	locp	int	with	singv	649s38	e.1.04	of-with	1b	142	2.67	3.2	locp	unint	with	singv	649s43	e.5.17	clausal	4a	123	4	4.38	locp	unint	NA	singv	649s45	e.23.08	for-of-with	1a	157	4.83	5.91	locs	int	for	singv	649s57	e.1.02	of-with	3a	61	3.33	3.85	locp	unint	with	singv	649s60	e.4.24	with-attr-acc	4b	225	5.92	5.36	locp	int	with	singv	649s172	e.1.12	of-with	2b	58	4.42	6.45	locs	int	of	singv	650s23	e.4.08	with-attr-acc	2a	135	6.17	5.73	locs	int	with	singv	650s28	e.4.24	with-attr-acc	4b	225	5.92	5.36	locp	int	with	singv	650s43	e.5.03	clausal	4a	190	3.63	5.5	locs	int	NA	singv	650s7	e.23.05	for-of-with	4a	244	5.17	5.77	locs	int	of	singv	650s7	e.5.33	clausal	4a	235	4.44	5.25	locs	int	NA	singv	650s264	e.5.10	clausal	2b	142	3.31	5.63	locs	int	NA	singv	651s34	e.4.07	with-attr-acc	3b	228	5.91	5.45	locp	int	with	singv	651s51	e.4.04	with-attr-acc	4a	191	4.42	6.45	locp	int	with	singv	651s51	e.23.07	for-of-with	4a	131	4.25	6.73	locs	int	for	singv	651s52	e.4.15	with-attr-acc	4b	181	3.08	3.55	locp	unint	with	singv	651s73	e.5.10	clausal	3a	197	3.63	5.44	locs	unint	NA	singv	651s158	e.1.06	of-with	3b	124	2.67	4.5	locp	unint	with	pluralv	652s175	e.4.09	with-attr-acc	4a	89	2.58	3.36	locs	unint	with	singv	652s33	e.1.15	of-with	3a	112	3.67	4.3	locp	int	of	singv	652s33	e.5.29	clausal	3a	97	3.69	4.75	locp	unint	NA	singv	652s39	e.5.08	clausal	2a	157	4.19	5	locp	int	NA	singv	652s71	e.1.03	of-with	2a	176	2.58	2.5	locs	unint	with	singv	652s8	e.23.04	for-of-with	4b	237	3.58	5	locp	int	of	singv	652s12	e.4.15	with-attr-acc	3b	82	4.67	4.18	locp	int	with	singv	653s172	e.1.03	of-with	2b	65	2.58	2.5	locs	unint	with	singv	653s32	e.1.01	of-with	2b	250	2.58	4.6	locp	unint	with	singv	653s39	e.4.20	with-attr-acc	2a	129	6	6.18	locs	int	with	singv	653s43	e.1.14	of-with	4a	157	3.5	4.75	locs	int	of	singv	653s34	e.23.13	for-of-with	3b	120	4	6.27	locs	int	for	singv	654s49	e.23.09	for-of-with	3a	106	4.25	4.69	locp	int	of	singv	654s54	e.1.02	of-with	1b	253	3.25	3.75	locs	unint	with	singv	654s57	e.1.03	of-with	3a	99	3.75	3.05	locp	int	of	singv	654s57	e.5.22	clausal	3a	131	2.63	4.38	locs	unint	NA	singv	654s142	e.23.01	for-of-with	3b	110	3.83	4.54	locs	unint	with	singv	655s34	e.5.23	clausal	3b	206	5.81	5.25	locs	int	NA	singv	655s49	e.23.15	for-of-with	3a	167	5.5	6.77	locs	unint	with	singv	655s57	e.1.07	of-with	3a	116	5.58	4.45	locp	int	of	singv	655s6	e.23.08	for-of-with	3a	204	4.92	6.15	locs	unint	with	singv	655s33	e.23.01	for-of-with	3a	221	3.83	4.54	locs	unint	with	singv	656s73	e.23.18	for-of-with	3a	246	4.42	6.92	locs	int	of	pluralv	656s163	e.5.06	clausal	2a	126	3.5	6	locp	unint	NA	singv	657s168	e.4.22	with-attr-acc	4b	228	4.58	5.64	locs	int	with	singv	657s172	e.5.30	clausal	2b	82	4.56	4.38	locs	unint	NA	singv	657s23	e.5.14	clausal	2a	199	2.81	5.13	locs	int	NA	singv	657s32	e.5.27	clausal	2b	133	2.5	5.5	locs	int	NA	singv	657s33	e.5.06	clausal	3a	208	4.44	5.38	locs	int	NA	singv	657s38	e.23.17	for-of-with	1b	228	4.33	5.92	locp	unint	with	singv	657s52	e.23.16	for-of-with	4b	52	4.83	5.77	locp	unint	with	singv	658s57	e.1.17	of-with	3a	150	3.67	5.85	locs	int	of	singv	658s73	e.23.01	for-of-with	3a	221	3.83	4.54	locs	unint	with	singv	658s11	e.23.17	for-of-with	2a	241	5.25	6.86	locs	int	of	singv	659s150	e.5.26	clausal	3b	246	4.63	4.63	locp	int	NA	singv	659s175	e.4.19	with-attr-acc	4a	204	3.08	4.36	locp	unint	with	singv	659s33	e.5.01	clausal	3a	40	4.81	6.33	locs	int	NA	singv	659s46	e.5.33	clausal	1b	177	3.31	4.38	locs	unint	NA	singv	659s52	e.5.22	clausal	4b	183	3.31	5.13	locp	int	NA	singv	659s127	e.5.10	clausal	4a	205	3.69	5.88	locp	int	NA	singv	660s172	e.5.05	clausal	2b	151	4.31	5.25	locs	int	NA	singv	660s24	e.5.30	clausal	2b	82	4.56	4.38	locs	unint	NA	singv	660s60	e.5.12	clausal	4b	158	3.69	5	locs	int	NA	singv	660s11	e.5.05	clausal	2a	40	4.31	5.25	locs	int	NA	singv	661s13	e.5.13	clausal	1a	176	3.38	6	locs	int	NA	singv	661s172	e.4.23	with-attr-acc	2b	56	2.17	3.18	locs	unint	with	singv	661s172	e.5.09	clausal	2b	225	2.63	5.88	locs	unint	NA	singv	661s24	e.23.14	for-of-with	2b	100	5.5	6.15	locs	unint	with	singv	661s31	e.4.10	with-attr-acc	2a	213	5.33	5.73	locp	int	with	singv	661s34	e.4.18	with-attr-acc	3b	130	3.58	5.09	locp	unint	with	singv	661s5	e.4.15	with-attr-acc	3a	193	4.67	4.18	locp	int	with	singv	661s31	e.1.11	of-with	2a	155	5.08	5.05	locs	unint	with	singv	662s38	e.1.02	of-with	1b	253	3.25	3.75	locs	unint	with	singv	662s45	e.5.34	clausal	1a	137	3.38	6	locs	int	NA	singv	662s7	e.4.02	with-attr-acc	4a	108	5.17	5.45	locs	int	with	singv	662s71	e.1.13	of-with	2a	221	2.83	4.15	locp	unint	with	pluralv	662s15	e.5.20	clausal	2a	44	2.75	3.63	locp	int	NA	singv	663s172	e.4.19	with-attr-acc	2b	80	2.83	5.91	locs	unint	with	pluralv	663s22	e.1.21	of-with	1b	149	5.33	5.55	locp	int	of	singv	663s57	e.4.08	with-attr-acc	3a	144	2	3.64	locs	unint	with	singv	663s12	e.5.01	clausal	3b	151	4.81	6.33	locs	int	NA	singv	664s165	e.1.14	of-with	3a	70	4.33	4.85	locp	unint	with	singv	664s175	e.5.18	clausal	4a	193	2.31	5.33	locp	int	NA	singv	664s18	e.4.07	with-attr-acc	3b	228	5.91	5.45	locp	int	with	singv	664s25	e.5.28	clausal	3a	104	2.75	4.75	locs	int	NA	singv	664s264	e.1.14	of-with	2b	227	5.58	4.9	locp	int	of	singv	664s29	e.5.09	clausal	1a	159	2.5	5.5	locs	int	NA	singv	664s30	e.5.03	clausal	1b	172	2.19	4.63	locs	unint	NA	singv	664s12	e.23.07	for-of-with	3b	212	4.33	5.69	locp	unint	with	singv	665s19	e.1.13	of-with	4a	241	3.5	3.1	locs	unint	with	singv	665s141	e.1.06	of-with	3a	235	2.67	4.5	locp	unint	with	singv	666s158	e.1.16	of-with	3b	163	2.5	4.5	locs	unint	with	pluralv	666s16	e.1.07	of-with	1b	225	5.33	4.05	locs	int	of	singv	666s61	e.4.04	with-attr-acc	1a	155	3.83	4.91	locp	unint	with	pluralv	666s62	e.23.17	for-of-with	1b	228	4.33	5.92	locp	unint	with	singv	666s168	e.1.17	of-with	4b	56	3.92	4.45	locs	unint	with	singv	667s4	e.5.04	clausal	2b	231	1.94	5.25	locs	unint	NA	singv	667s43	e.23.19	for-of-with	4a	249	4.58	5.57	locs	unint	with	singv	667s6	e.4.17	with-attr-acc	3a	169	6.42	6.36	locs	int	with	singv	667s18	e.1.02	of-with	3b	172	3.33	3.85	locp	unint	with	singv	668s38	e.5.18	clausal	1b	52	2.69	5.25	locp	unint	NA	singv	668s46	e.5.09	clausal	1b	48	2.5	5.5	locs	int	NA	singv	668s52	e.5.24	clausal	4b	214	2.38	5.78	locs	int	NA	singv	668s12	e.23.15	for-of-with	3b	56	5.5	6.77	locs	unint	with	singv	669s20	e.23.10	for-of-with	4b	210	4.67	3.31	locp	int	of	singv	669s4	e.4.16	with-attr-acc	2b	165	5.75	5.45	locs	int	with	singv	670s51	e.1.20	of-with	4a	208	4.83	6.2	locp	int	of	pluralv	670s67	e.4.24	with-attr-acc	4a	114	5.92	5.36	locp	int	with	singv	670s127	e.23.07	for-of-with	4a	131	4.25	6.73	locs	int	for	singv	671s168	e.5.26	clausal	4b	231	3.19	4.11	locp	unint	NA	singv	671s20	e.5.27	clausal	4b	179	2.88	5.88	locp	int	NA	singv	671s57	e.5.28	clausal	3a	104	2.75	4.75	locs	int	NA	singv	671s23	e.23.06	for-of-with	2a	246	3.92	5.38	locp	int	of	singv	672s30	e.5.30	clausal	1b	145	5.44	6	locs	int	NA	singv	672s32	e.23.18	for-of-with	2b	196	4.92	6.38	locp	unint	with	singv	672s51	e.5.03	clausal	4a	190	3.63	5.5	locs	int	NA	singv	672s57	e.1.12	of-with	3a	253	3.58	4.65	locs	unint	with	singv	672s11	e.5.16	clausal	2a	123	5.06	5.63	locp	int	NA	singv	673s141	e.5.03	clausal	3a	237	2.94	5.63	locp	unint	NA	singv	673s69	e.5.08	clausal	1a	229	3.63	5	locs	unint	NA	singv	673s7	e.4.04	with-attr-acc	4a	191	4.42	6.45	locp	int	with	singv	673s74	e.23.10	for-of-with	3b	116	5.25	4.54	locs	int	of	singv	673s142	e.4.14	with-attr-acc	3b	133	3.25	3.82	locp	unint	with	singv	674s17	e.1.23	of-with	2b	163	1.42	2.7	locs	unint	with	singv	674s172	e.23.07	for-of-with	2b	177	3.5	6	locs	unint	with	singv	674s33	e.4.07	with-attr-acc	3a	117	5.91	5.45	locp	int	with	singv	674s33	e.1.13	of-with	3a	233	4.17	5.35	locs	int	of	singv	674s52	e.1.05	of-with	4b	227	2.58	2.55	locs	unint	with	singv	674s54	e.23.16	for-of-with	1b	56	5.5	5.73	locs	int	for	singv	674s66	e.4.08	with-attr-acc	3b	255	2	3.64	locs	unint	with	singv	674s67	e.23.17	for-of-with	4a	218	5.58	6.46	locs	unint	with	singv	674s71	e.4.22	with-attr-acc	2a	131	4.92	4.27	locp	int	with	singv	674s16	e.4.18	with-attr-acc	1b	133	2.58	5.55	locs	unint	with	pluralv	675s22	e.23.07	for-of-with	1b	183	4.42	6.18	locp	int	for	singv	675s44	e.4.08	with-attr-acc	4b	74	6.58	5.27	locp	int	with	singv	675s44	e.4.21	with-attr-acc	4b	65	2.5	3.36	locs	unint	with	pluralv	675s60	e.5.32	clausal	4b	116	3.75	4.63	locs	unint	NA	singv	675s7	e.5.10	clausal	4a	205	3.69	5.88	locp	int	NA	singv	675s74	e.23.20	for-of-with	3b	80	4.5	5.54	locp	unint	with	singv	675s12	e.1.05	of-with	3b	79	3.25	4.85	locs	int	of	singv	676s150	e.5.14	clausal	3b	144	2.38	5.33	locs	unint	NA	singv	676s163	e.5.32	clausal	2a	83	3.19	5.13	locp	unint	NA	singv	676s172	e.23.17	for-of-with	2b	130	5.25	6.86	locs	int	of	singv	676s20	e.1.01	of-with	4b	223	2.92	6.1	locs	unint	with	singv	676s264	e.23.16	for-of-with	2b	97	5.42	6.82	locp	int	for	singv	676s33	e.5.36	clausal	3a	199	2.25	4.56	locs	unint	NA	singv	676s336	e.23.07	for-of-with	4b	242	4.25	6.73	locs	int	for	singv	676s52	e.1.14	of-with	4b	46	3.5	4.75	locs	int	of	singv	676s60	e.5.24	clausal	4b	214	2.38	5.78	locs	int	NA	singv	676s12	e.23.08	for-of-with	3b	93	4.92	6.15	locs	unint	with	singv	677s43	e.5.30	clausal	4a	148	3.56	5.25	locp	unint	NA	singv	677s5	e.23.19	for-of-with	3a	126	4.58	6.64	locp	int	for	singv	677s15	e.4.11	with-attr-acc	2a	188	1.5	1.55	locs	unint	with	singv	678s158	e.5.19	clausal	3b	60	2.75	5.38	locs	int	NA	singv	678s19	e.23.02	for-of-with	4a	66	3.17	4.92	locs	unint	with	singv	678s33	e.4.03	with-attr-acc	3a	224	5.92	6.45	locp	int	with	singv	678s46	e.4.11	with-attr-acc	1b	200	5.33	4.45	locs	int	with	singv	678s51	e.5.19	clausal	4a	224	1.63	4.89	locs	unint	NA	singv	678s38	e.4.23	with-attr-acc	1b	217	5.92	6.18	locs	int	with	singv	679s51	e.1.10	of-with	4a	97	3.17	3.95	locs	int	of	singv	679s127	e.1.05	of-with	4a	116	2.58	2.55	locs	unint	with	singv	680s156	e.4.24	with-attr-acc	2b	113	5	6.55	locs	int	with	singv	680s20	e.1.06	of-with	4b	204	3.25	5.25	locs	int	of	singv	680s61	e.5.10	clausal	1a	54	2.88	4.13	locp	unint	NA	singv	680s17	e.5.29	clausal	2b	185	4.25	6	locp	int	NA	singv	681s22	e.1.17	of-with	1b	60	2.83	5.45	locp	int	of	singv	681s38	e.23.20	for-of-with	1b	246	3.58	5.23	locp	int	of	singv	681s61	e.4.01	with-attr-acc	1a	193	6.08	6.45	locp	int	with	singv	681s172	e.4.07	with-attr-acc	2b	255	3.25	5	locs	unint	with	singv	682s34	e.1.10	of-with	3b	170	3.08	4.45	locp	unint	with	singv	682s4	e.23.09	for-of-with	2b	74	4.33	4.38	locs	int	of	singv	682s46	e.4.03	with-attr-acc	1b	63	6.08	4.27	locs	int	with	singv	682s49	e.23.14	for-of-with	3a	218	5.5	6.93	locp	unint	with	singv	682s67	e.5.23	clausal	4a	169	4.38	3.5	locs	unint	NA	singv	682s7	e.1.04	of-with	4a	246	4.08	4.25	locp	int	of	singv	682s12	e.23.01	for-of-with	3b	110	3.83	4.54	locs	unint	with	singv	683s127	e.5.33	clausal	4a	235	4.44	5.25	locs	int	NA	singv	683s142	e.4.19	with-attr-acc	3b	41	4.92	5.36	locp	int	with	singv	683s150	e.5.30	clausal	3b	37	5.44	5.89	locp	int	NA	singv	683s264	e.4.11	with-attr-acc	2b	77	1.5	1.55	locs	unint	with	singv	683s62	e.4.13	with-attr-acc	1b	144	5.67	6.55	locp	int	with	singv	683s70	e.4.17	with-attr-acc	1b	147	6.42	6.09	locp	int	with	singv	683s142	e.5.16	clausal	3b	230	4.88	5	locp	unint	NA	singv	684s172	e.5.04	clausal	2b	231	1.94	5.25	locs	unint	NA	singv	684s18	e.5.15	clausal	3b	94	2.44	4.63	locs	int	NA	singv	684s40	e.23.18	for-of-with	2b	196	4.92	6.38	locp	unint	with	singv	684s49	e.23.19	for-of-with	3a	126	4.58	6.64	locp	int	for	singv	684s49	e.5.14	clausal	3a	255	2.38	5.33	locs	unint	NA	singv	684s71	e.4.24	with-attr-acc	2a	224	5	6.55	locs	int	with	singv	684s142	e.5.29	clausal	3b	208	3.69	4.75	locp	unint	NA	singv	685s158	e.23.07	for-of-with	3b	212	4.33	5.69	locp	unint	with	singv	685s158	e.5.14	clausal	3b	144	2.38	5.33	locs	unint	NA	singv	685s33	e.1.14	of-with	3a	70	4.33	4.85	locp	unint	with	pluralv	685s336	e.4.24	with-attr-acc	4b	225	5.92	5.36	locp	int	with	singv	685s35	e.5.01	clausal	4a	61	4.13	4.75	locs	unint	NA	singv	685s71	e.23.03	for-of-with	2a	174	4.08	4.31	locp	unint	with	singv	685s71	e.4.12	with-attr-acc	2a	233	3.5	5.09	locs	int	with	singv	685s45	e.23.18	for-of-with	1a	148	5.58	6.31	locs	unint	with	singv	686s51	e.4.14	with-attr-acc	4a	119	6.08	6.36	locs	int	with	singv	686s6	e.5.28	clausal	3a	104	2.75	4.75	locs	int	NA	singv	686s62	e.23.06	for-of-with	1b	104	5.42	5.69	locs	int	of	singv	686s127	e.5.11	clausal	4a	221	2.75	4.75	locs	unint	NA	singv	687s163	e.1.24	of-with	2a	59	3.5	4.65	locs	int	of	singv	687s33	e.23.14	for-of-with	3a	218	5.5	6.93	locp	unint	with	pluralv	687s33	e.23.13	for-of-with	3a	231	4	6.27	locs	int	for	singv	687s12	e.4.22	with-attr-acc	3b	152	4.75	4	locp	unint	with	singv	688s13	e.1.19	of-with	1a	47	5.83	6.2	locs	int	of	singv	688s165	e.5.18	clausal	3a	74	2.69	5.63	locs	unint	NA	singv	688s168	e.23.05	for-of-with	4b	133	5.17	5.77	locs	int	of	singv	688s22	e.23.15	for-of-with	1b	227	5.83	6.86	locs	int	of	singv	688s45	e.1.06	of-with	1a	202	3.42	4.85	locs	unint	with	singv	688s46	e.1.02	of-with	1b	253	3.25	3.75	locs	unint	with	singv	688s57	e.1.08	of-with	3a	195	3.58	4.7	locs	unint	with	singv	688s62	e.5.12	clausal	1b	107	3.13	4.75	locs	unint	NA	singv	688s12	e.5.18	clausal	3b	185	2.69	5.63	locs	unint	NA	singv	689s127	e.1.20	of-with	4a	208	4.83	6.2	locp	int	of	singv	689s172	e.5.17	clausal	2b	104	3.81	4.38	locs	unint	NA	singv	689s33	e.5.24	clausal	3a	155	2.06	2.63	locp	unint	NA	singv	689s52	e.5.20	clausal	4b	84	2.94	4.13	locs	int	NA	singv	689s57	e.23.16	for-of-with	3a	57	5.67	6.86	locs	unint	with	singv	689s6	e.1.24	of-with	3a	89	3.17	4.45	locs	unint	with	singv	689s172	e.4.08	with-attr-acc	2b	246	6.17	5.73	locs	int	with	singv	690s24	e.23.17	for-of-with	2b	130	5.25	6.86	locs	int	of	pluralv	690s38	e.4.01	with-attr-acc	1b	82	6.08	6.45	locp	int	with	singv	690s61	e.5.13	clausal	1a	176	3.38	6	locs	int	NA	singv	690s67	e.1.05	of-with	4a	116	2.58	2.55	locs	unint	with	singv	690s67	e.4.10	with-attr-acc	4a	229	5.75	5.91	locs	int	with	singv	690s150	e.5.04	clausal	3b	158	3.25	5.25	locp	int	NA	singv	691s19	e.23.11	for-of-with	4a	152	3.25	5.36	locs	unint	with	singv	691s22	e.5.31	clausal	1b	191	1.5	5.25	locp	unint	NA	singv	691s24	e.23.05	for-of-with	2b	93	4.83	5.69	locs	unint	with	singv	691s28	e.23.15	for-of-with	4b	168	5.5	7	locp	unint	with	singv	691s46	e.1.17	of-with	1b	60	2.83	5.45	locp	int	of	singv	691s46	e.5.08	clausal	1b	118	3.63	5	locs	unint	NA	singv	691s15	e.5.30	clausal	2a	193	4.56	4.38	locs	unint	NA	singv	692s264	e.5.34	clausal	2b	138	2.69	5.5	locs	unint	NA	singv	692s39	e.4.08	with-attr-acc	2a	135	6.17	5.73	locs	int	with	singv	692s5	e.4.05	with-attr-acc	3a	137	4.08	5	locs	int	with	singv	692s57	e.1.09	of-with	3a	120	4.58	5.9	locs	int	of	singv	692s141	e.4.18	with-attr-acc	3a	241	3.58	5.09	locp	unint	with	singv	693s19	e.23.20	for-of-with	4a	213	4.42	5.38	locs	int	of	singv	693s22	e.4.20	with-attr-acc	1b	220	3.83	3.27	locp	unint	with	singv	693s25	e.4.20	with-attr-acc	3a	133	3.83	4.82	locs	unint	with	singv	693s264	e.23.03	for-of-with	2b	63	4.08	4.31	locp	unint	with	singv	693s46	e.23.17	for-of-with	1b	228	4.33	5.92	locp	unint	with	singv	693s49	e.23.01	for-of-with	3a	221	3.83	4.54	locs	unint	with	singv	693s57	e.1.13	of-with	3a	233	4.17	5.35	locs	int	of	singv	693s67	e.1.10	of-with	4a	97	3.17	3.95	locs	int	of	singv	693s7	e.4.10	with-attr-acc	4a	229	5.75	5.91	locs	int	with	singv	693s168	e.23.09	for-of-with	4b	174	4.33	5.36	locs	unint	with	singv	694s172	e.5.33	clausal	2b	94	5.06	5.5	locp	int	NA	singv	694s54	e.4.20	with-attr-acc	1b	220	3.83	3.27	locp	unint	with	singv	694s142	e.1.17	of-with	3b	39	3.67	5.85	locs	int	of	singv	695s23	e.5.29	clausal	2a	74	4.25	6	locp	int	NA	singv	695s46	e.5.32	clausal	1b	234	3.56	5	locp	int	NA	singv	695s12	e.1.03	of-with	3b	210	3.75	3.05	locp	int	of	singv	696s12	e.5.24	clausal	3b	44	2.06	2.63	locp	unint	NA	singv	696s16	e.1.19	of-with	1b	158	5.83	6.2	locs	int	of	singv	696s16	e.23.15	for-of-with	1b	227	5.83	6.86	locs	int	of	singv	696s172	e.4.02	with-attr-acc	2b	206	4.75	6.55	locp	int	with	singv	696s32	e.5.10	clausal	2b	142	3.31	5.63	locs	int	NA	singv	696s46	e.5.23	clausal	1b	230	5	4.63	locp	int	NA	singv	696s57	e.1.22	of-with	3a	93	1.67	2.5	locp	unint	with	pluralv	696s264	e.5.31	clausal	2b	204	3.56	4.38	locs	int	NA	singv	697s35	e.5.33	clausal	4a	235	4.44	5.25	locs	int	NA	singv	697s4	e.23.08	for-of-with	2b	244	5	4.91	locp	int	for	singv	697s12	e.1.17	of-with	3b	39	3.67	5.85	locs	int	of	singv	698s142	e.4.21	with-attr-acc	3b	189	5.42	6.18	locs	int	with	singv	698s15	e.5.33	clausal	2a	205	5.06	5.5	locp	int	NA	singv	698s163	e.1.21	of-with	2a	101	4.67	4.7	locp	unint	with	singv	698s168	e.1.07	of-with	4b	120	4.64	4.75	locp	unint	with	singv	698s17	e.4.19	with-attr-acc	2b	80	2.83	5.91	locs	unint	with	singv	698s18	e.4.12	with-attr-acc	3b	194	5.08	5.55	locs	unint	with	pluralv	698s31	e.1.17	of-with	2a	119	3.42	4.7	locp	unint	with	singv	698s52	e.4.22	with-attr-acc	4b	228	4.58	5.64	locs	int	with	singv	698s60	e.5.19	clausal	4b	113	1.63	4.89	locs	unint	NA	singv	698s22	e.4.09	with-attr-acc	1b	189	4.75	6.27	locp	int	with	singv	699s38	e.5.20	clausal	1b	196	2.31	4.5	locs	unint	NA	singv	699s49	e.5.06	clausal	3a	208	4.44	5.38	locs	int	NA	singv	699s52	e.1.12	of-with	4b	88	3.92	5.85	locp	int	of	singv	699s13	e.1.22	of-with	1a	208	2.25	2.15	locs	unint	with	singv	700s24	e.1.23	of-with	2b	163	1.42	2.7	locs	unint	with	singv	700s38	e.1.16	of-with	1b	194	2.92	4.45	locp	unint	with	singv	700s51	e.1.02	of-with	4a	171	4.25	5.5	locs	int	of	singv	700s158	e.4.06	with-attr-acc	3b	214	3.17	3.91	locp	unint	with	pluralv	701s34	e.5.27	clausal	3b	225	2.5	4.25	locs	unint	NA	singv	701s54	e.4.11	with-attr-acc	1b	200	5.33	4.45	locs	int	with	singv	701s12	e.1.06	of-with	3b	124	2.67	4.5	locp	unint	with	singv	702s17	e.5.09	clausal	2b	225	2.63	5.88	locs	unint	NA	singv	702s40	e.23.06	for-of-with	2b	135	3.92	5.38	locp	int	of	singv	702s8	e.5.26	clausal	4b	231	3.19	4.11	locp	unint	NA	singv	702s156	e.5.30	clausal	2b	82	4.56	4.38	locs	unint	NA	singv	703s175	e.4.08	with-attr-acc	4a	185	6.58	5.27	locp	int	with	singv	703s61	e.23.02	for-of-with	1a	52	2.83	5	locp	unint	with	singv	703s66	e.23.19	for-of-with	3b	237	4.58	6.64	locp	int	for	singv	703s142	e.5.30	clausal	3b	37	5.44	5.89	locp	int	NA	singv	704s165	e.5.30	clausal	3a	148	5.44	5.89	locp	int	NA	singv	704s248	e.5.13	clausal	2b	214	3.38	6.38	locs	unint	NA	singv	704s34	e.23.15	for-of-with	3b	56	5.5	6.77	locs	unint	with	singv	704s49	e.4.21	with-attr-acc	3a	78	5.42	6.18	locs	int	with	singv	704s51	e.4.24	with-attr-acc	4a	114	5.92	5.36	locp	int	with	singv	704s52	e.4.19	with-attr-acc	4b	93	3.08	4.36	locp	unint	with	singv	704s6	e.1.13	of-with	3a	233	4.17	5.35	locs	int	of	singv	704s61	e.23.13	for-of-with	1a	126	3.33	5	locs	unint	with	singv	704s141	e.23.12	for-of-with	3a	142	4.33	5.08	locp	unint	with	singv	705s16	e.5.27	clausal	1b	86	2.67	4.5	locp	unint	NA	singv	705s52	e.23.13	for-of-with	4b	191	3.5	5.09	locp	int	for	singv	705s6	e.23.01	for-of-with	3a	221	3.83	4.54	locs	unint	with	singv	705s8	e.4.14	with-attr-acc	4b	230	6.08	6.36	locs	int	with	singv	705s12	e.1.14	of-with	3b	181	4.33	4.85	locp	unint	with	singv	706s19	e.5.14	clausal	4a	34	2.13	4.5	locp	int	NA	singv	706s28	e.23.05	for-of-with	4b	133	5.17	5.77	locs	int	of	singv	706s34	e.5.03	clausal	3b	126	2.94	5.63	locp	unint	NA	singv	706s38	e.5.28	clausal	1b	110	3.38	5.5	locp	int	NA	singv	706s61	e.4.09	with-attr-acc	1a	78	4.75	6.27	locp	int	with	singv	706s156	e.1.15	of-with	2b	179	4.25	3.8	locs	unint	with	singv	707s16	e.1.01	of-with	1b	120	3.42	6.1	locp	int	of	singv	707s175	e.1.12	of-with	4a	199	3.92	5.85	locp	int	of	singv	707s33	e.1.08	of-with	3a	195	3.58	4.7	locs	unint	with	singv	707s33	e.4.12	with-attr-acc	3a	83	5.08	5.55	locs	unint	with	singv	707s35	e.4.14	with-attr-acc	4a	119	6.08	6.36	locs	int	with	singv	707s4	e.1.08	of-with	2b	52	4.33	4.55	locs	int	of	singv	707s43	e.1.07	of-with	4a	231	4.64	4.75	locp	unint	with	singv	707s12	e.23.20	for-of-with	3b	80	4.5	5.54	locp	unint	with	pluralv	708s20	e.23.05	for-of-with	4b	133	5.17	5.77	locs	int	of	singv	708s264	e.5.27	clausal	2b	133	2.5	5.5	locs	int	NA	singv	708s15	e.4.24	with-attr-acc	2a	224	5	6.55	locs	int	with	singv	709s17	e.23.20	for-of-with	2b	181	4.36	5.57	locs	unint	with	singv	709s24	e.4.12	with-attr-acc	2b	122	3.5	5.09	locs	int	with	singv	709s39	e.4.17	with-attr-acc	2a	202	4.75	5.09	locp	unint	with	singv	709s52	e.1.16	of-with	4b	44	4.08	2.4	locp	int	of	pluralv	709s57	e.23.04	for-of-with	3a	38	3.83	5.08	locs	int	of	singv	709s61	e.4.02	with-attr-acc	1a	44	2.67	3.64	locs	unint	with	singv	709s168	e.23.19	for-of-with	4b	138	4.58	5.57	locs	unint	with	singv	710s17	e.5.14	clausal	2b	88	2.81	5.13	locs	int	NA	singv	710s45	e.4.12	with-attr-acc	1a	97	4.83	6.18	locp	unint	with	singv	710s49	e.1.15	of-with	3a	112	3.67	4.3	locp	int	of	pluralv	710s71	e.5.05	clausal	2a	40	4.31	5.25	locs	int	NA	singv	710s13	e.5.14	clausal	1a	204	2.69	4.88	locp	unint	NA	singv	711s38	e.1.19	of-with	1b	158	5.83	6.2	locs	int	of	singv	711s165	e.5.05	clausal	3a	239	3.06	4.5	locs	unint	NA	singv	712s168	e.5.12	clausal	4b	158	3.69	5	locs	int	NA	singv	712s4	e.23.12	for-of-with	2b	68	4.5	5.92	locs	unint	with	singv	712s142	e.1.11	of-with	3b	140	4.42	5.1	locp	int	of	singv	713s22	e.1.06	of-with	1b	91	3.42	4.85	locs	unint	with	singv	713s5	e.4.12	with-attr-acc	3a	83	5.08	5.55	locs	unint	with	singv	713s61	e.5.22	clausal	1a	146	2.31	4.11	locp	unint	NA	singv	713s15	e.5.34	clausal	2a	249	2.69	5.5	locs	unint	NA	singv	714s150	e.1.13	of-with	3b	122	4.17	5.35	locs	int	of	singv	714s57	e.4.17	with-attr-acc	3a	169	6.42	6.36	locs	int	with	singv	714s60	e.5.05	clausal	4b	104	4.75	5.33	locp	int	NA	singv	714s67	e.23.11	for-of-with	4a	152	3.25	5.36	locs	unint	with	singv	714s76	e.5.04	clausal	4b	170	2.5	5.88	locp	unint	NA	singv	714s20	e.1.20	of-with	4b	97	4.83	6.2	locp	int	of	pluralv	715s31	e.23.10	for-of-with	2a	227	4.33	5.64	locp	unint	with	singv	715s70	e.1.01	of-with	1b	120	3.42	6.1	locp	int	of	singv	715s172	e.1.14	of-with	2b	227	5.58	4.9	locp	int	of	singv	716s18	e.1.23	of-with	3b	174	2.75	3.5	locp	int	of	singv	716s24	e.4.09	with-attr-acc	2b	210	2.25	2.64	locp	unint	with	singv	716s59	e.1.07	of-with	4a	231	4.64	4.75	locp	unint	with	singv	716s141	e.5.22	clausal	3a	131	2.63	4.38	locs	unint	NA	singv	717s18	e.5.16	clausal	3b	230	4.88	5	locp	unint	NA	singv	717s22	e.1.01	of-with	1b	120	3.42	6.1	locp	int	of	singv	717s25	e.5.17	clausal	3a	36	4.75	5	locp	int	NA	singv	717s38	e.1.20	of-with	1b	128	4.92	4.9	locp	unint	with	singv	717s4	e.5.23	clausal	2b	145	3.69	3.63	locp	unint	NA	singv	717s7	e.1.21	of-with	4a	251	5.25	5	locs	unint	with	singv	717s19	e.1.02	of-with	4a	171	4.25	5.5	locs	int	of	singv	718s22	e.4.12	with-attr-acc	1b	208	4.83	6.18	locp	unint	with	singv	718s22	e.4.14	with-attr-acc	1b	140	3.5	2.91	locs	unint	with	singv	718s38	e.4.05	with-attr-acc	1b	68	5.42	6.55	locp	int	with	singv	718s6	e.5.03	clausal	3a	237	2.94	5.63	locp	unint	NA	singv	718s8	e.1.06	of-with	4b	204	3.25	5.25	locs	int	of	singv	718s10	e.1.01	of-with	1b	120	3.42	6.1	locp	int	of	singv	719s10	e.1.12	of-with	1b	202	3.58	4	locp	unint	with	singv	719s158	e.23.17	for-of-with	3b	240	5.75	6.54	locp	int	of	singv	719s18	e.23.17	for-of-with	3b	240	5.75	6.54	locp	int	of	singv	719s20	e.5.20	clausal	4b	84	2.94	4.13	locs	int	NA	singv	719s25	e.23.03	for-of-with	3a	163	5.08	5.18	locs	int	for	singv	719s264	e.5.36	clausal	2b	183	3.38	4.25	locs	int	NA	singv	719s49	e.1.12	of-with	3a	253	3.58	4.65	locs	unint	with	singv	719s127	e.1.21	of-with	4a	251	5.25	5	locs	unint	with	singv	720s15	e.5.09	clausal	2a	114	2.63	5.88	locs	unint	NA	singv	720s33	e.4.15	with-attr-acc	3a	193	4.67	4.18	locp	int	with	singv	720s40	e.1.01	of-with	2b	250	2.58	4.6	locp	unint	with	singv	720s52	e.4.17	with-attr-acc	4b	126	4.25	3.73	locs	unint	with	singv	720s6	e.4.09	with-attr-acc	3a	179	5	6.64	locs	int	with	singv	720s150	e.1.08	of-with	3b	84	3.58	4.7	locs	unint	with	singv	721s150	e.23.16	for-of-with	3b	168	5.67	6.86	locs	unint	with	singv	721s20	e.23.08	for-of-with	4b	128	4.58	6.31	locp	unint	with	singv	721s4	e.5.09	clausal	2b	225	2.63	5.88	locs	unint	NA	singv	721s62	e.5.23	clausal	1b	230	5	4.63	locp	int	NA	singv	721s7	e.1.05	of-with	4a	116	2.58	2.55	locs	unint	with	singv	721s24	e.5.20	clausal	2b	155	2.75	3.63	locp	int	NA	singv	722s264	e.5.14	clausal	2b	88	2.81	5.13	locs	int	NA	singv	722s52	e.1.10	of-with	4b	208	3.17	3.95	locs	int	of	singv	722s60	e.23.08	for-of-with	4b	128	4.58	6.31	locp	unint	with	singv	722s11	e.4.02	with-attr-acc	2a	95	4.75	6.55	locp	int	with	singv	723s127	e.23.17	for-of-with	4a	218	5.58	6.46	locs	unint	with	singv	723s30	e.5.08	clausal	1b	118	3.63	5	locs	unint	NA	singv	723s55	e.5.06	clausal	2a	126	3.5	6	locp	unint	NA	singv	723s67	e.23.18	for-of-with	4a	144	4.92	7	locp	int	of	singv	723s141	e.1.16	of-with	3a	52	2.5	4.5	locs	unint	with	singv	724s141	e.5.27	clausal	3a	114	2.5	4.25	locs	unint	NA	singv	724s175	e.5.26	clausal	4a	120	3.19	4.11	locp	unint	NA	singv	724s20	e.5.34	clausal	4b	155	2.5	4.5	locp	unint	NA	singv	724s49	e.1.16	of-with	3a	52	2.5	4.5	locs	unint	with	singv	724s18	e.1.05	of-with	3b	79	3.25	4.85	locs	int	of	singv	725s39	e.4.13	with-attr-acc	2a	80	2.17	4.36	locp	unint	with	singv	725s51	e.23.20	for-of-with	4a	213	4.42	5.38	locs	int	of	singv	725s6	e.4.14	with-attr-acc	3a	244	3.25	3.82	locp	unint	with	singv	725s12	e.1.12	of-with	3b	142	3.58	4.65	locs	unint	with	singv	726s16	e.4.23	with-attr-acc	1b	217	5.92	6.18	locs	int	with	singv	726s25	e.5.32	clausal	3a	215	4.31	5	locs	int	NA	singv	726s4	e.4.02	with-attr-acc	2b	206	4.75	6.55	locp	int	with	singv	726s5	e.23.12	for-of-with	3a	142	4.33	5.08	locp	unint	with	singv	726s51	e.4.05	with-attr-acc	4a	106	4.17	5.82	locs	unint	with	singv	726s54	e.1.01	of-with	1b	120	3.42	6.1	locp	int	of	singv	726s142	e.4.09	with-attr-acc	3b	68	5	6.64	locs	int	with	singv	727s24	e.23.04	for-of-with	2b	189	3.17	5.14	locp	unint	with	pluralv	727s25	e.23.17	for-of-with	3a	129	5.75	6.54	locp	int	of	singv	727s38	e.5.19	clausal	1b	204	2.75	5.75	locp	int	NA	singv	727s12	e.23.06	for-of-with	3b	145	5	6.07	locs	unint	with	singv	728s12	e.4.24	with-attr-acc	3b	196	4.42	5.73	locs	unint	with	singv	728s150	e.1.05	of-with	3b	79	3.25	4.85	locs	int	of	singv	728s172	e.23.06	for-of-with	2b	135	3.92	5.38	locp	int	of	singv	728s175	e.1.17	of-with	4a	167	3.92	4.45	locs	unint	with	singv	728s24	e.4.15	with-attr-acc	2b	220	3.75	3.18	locs	unint	with	singv	728s26	e.4.07	with-attr-acc	3b	228	5.91	5.45	locp	int	with	singv	728s32	e.5.19	clausal	2b	208	2.31	4.75	locp	unint	NA	singv	728s35	e.1.13	of-with	4a	241	3.5	3.1	locs	unint	with	singv	728s67	e.4.09	with-attr-acc	4a	89	2.58	3.36	locs	unint	with	singv	728s12	e.4.21	with-attr-acc	3b	189	5.42	6.18	locs	int	with	singv	729s142	e.5.08	clausal	3b	187	3.31	5	locp	unint	NA	singv	729s168	e.1.11	of-with	4b	152	4.42	5	locp	unint	with	singv	729s32	e.1.14	of-with	2b	227	5.58	4.9	locp	int	of	singv	729s7	e.4.17	with-attr-acc	4a	237	4.25	3.73	locs	unint	with	singv	729s23	e.23.02	for-of-with	2a	148	4.17	5.64	locs	int	for	singv	730s32	e.4.08	with-attr-acc	2b	246	6.17	5.73	locs	int	with	singv	730s34	e.1.09	of-with	3b	231	4.58	5.9	locs	int	of	singv	730s35	e.5.32	clausal	4a	227	3.75	4.63	locs	unint	NA	singv	730s39	e.4.19	with-attr-acc	2a	191	2.83	5.91	locs	unint	with	singv	730s43	e.23.07	for-of-with	4a	131	4.25	6.73	locs	int	for	singv	730s264	e.4.07	with-attr-acc	2b	255	3.25	5	locs	unint	with	singv	731s33	e.23.03	for-of-with	3a	163	5.08	5.18	locs	int	for	singv	731s47	e.5.29	clausal	2a	74	4.25	6	locp	int	NA	singv	731s73	e.1.03	of-with	3a	99	3.75	3.05	locp	int	of	singv	731s11	e.23.16	for-of-with	2a	208	5.42	6.82	locp	int	for	singv	732s12	e.1.23	of-with	3b	174	2.75	3.5	locp	int	of	singv	732s22	e.1.24	of-with	1b	152	3.58	4.15	locp	unint	with	singv	732s61	e.4.21	with-attr-acc	1a	199	5.75	6.36	locp	int	with	singv	732s11	e.5.13	clausal	2a	103	3.38	6.38	locs	unint	NA	singv	733s12	e.5.06	clausal	3b	97	4.44	5.38	locs	int	NA	singv	733s172	e.1.06	of-with	2b	41	4.58	4.8	locp	int	of	singv	733s20	e.4.23	with-attr-acc	4b	248	2.17	2.45	locp	unint	with	singv	733s31	e.1.24	of-with	2a	59	3.5	4.65	locs	int	of	singv	733s34	e.5.20	clausal	3b	191	2.13	4.25	locp	unint	NA	singv	733s43	e.5.06	clausal	4a	161	2.88	5.88	locs	unint	NA	singv	733s44	e.5.09	clausal	4b	149	2.56	5.88	locp	unint	NA	singv	733s46	e.23.07	for-of-with	1b	183	4.42	6.18	locp	int	for	singv	733s46	e.4.21	with-attr-acc	1b	88	5.75	6.36	locp	int	with	singv	733s52	e.5.23	clausal	4b	58	4.38	3.5	locs	unint	NA	singv	733s158	e.5.22	clausal	3b	242	2.63	4.38	locs	unint	NA	singv	734s163	e.4.02	with-attr-acc	2a	95	4.75	6.55	locp	int	with	singv	735s43	e.23.03	for-of-with	4a	255	4.5	5.27	locp	int	for	singv	735s46	e.23.13	for-of-with	1b	237	3.33	5	locs	unint	with	singv	735s60	e.23.03	for-of-with	4b	144	4.5	5.27	locp	int	for	singv	735s67	e.5.33	clausal	4a	235	4.44	5.25	locs	int	NA	singv	735s12	e.1.24	of-with	3b	200	3.17	4.45	locs	unint	with	singv	736s34	e.5.09	clausal	3b	183	3	4.56	locp	int	NA	singv	736s5	e.1.12	of-with	3a	253	3.58	4.65	locs	unint	with	singv	736s5	e.5.05	clausal	3a	239	3.06	4.5	locs	unint	NA	singv	736s6	e.1.09	of-with	3a	120	4.58	5.9	locs	int	of	singv	736s7	e.1.07	of-with	4a	231	4.64	4.75	locp	unint	with	singv	736s127	e.4.14	with-attr-acc	4a	119	6.08	6.36	locs	int	with	singv	737s142	e.5.33	clausal	3b	219	3.56	3.88	locp	unint	NA	singv	737s67	e.1.18	of-with	4a	135	3.17	3.4	locs	int	of	singv	737s12	e.5.33	clausal	3b	219	3.56	3.88	locp	unint	NA	singv	738s158	e.1.24	of-with	3b	200	3.17	4.45	locs	unint	with	singv	738s158	e.5.23	clausal	3b	206	5.81	5.25	locs	int	NA	pluralv	738s16	e.4.13	with-attr-acc	1b	144	5.67	6.55	locp	int	with	singv	738s175	e.1.05	of-with	4a	116	2.58	2.55	locs	unint	with	singv	738s18	e.23.02	for-of-with	3b	63	2.75	6.36	locp	int	for	singv	738s4	e.5.33	clausal	2b	94	5.06	5.5	locp	int	NA	singv	738s46	e.5.01	clausal	1b	126	4.81	6	locp	int	NA	singv	738s15	e.5.27	clausal	2a	244	2.5	5.5	locs	int	NA	singv	739s156	e.1.01	of-with	2b	250	2.58	4.6	locp	unint	with	singv	739s163	e.5.22	clausal	2a	251	3.88	5.88	locs	int	NA	singv	739s23	e.4.12	with-attr-acc	2a	233	3.5	5.09	locs	int	with	singv	739s35	e.1.17	of-with	4a	167	3.92	4.45	locs	unint	with	singv	739s54	e.5.15	clausal	1b	215	2.44	4.63	locp	int	NA	singv	739s57	e.23.08	for-of-with	3a	204	4.92	6.15	locs	unint	with	singv	739s74	e.5.32	clausal	3b	104	4.31	5	locs	int	NA	singv	739s16	e.5.12	clausal	1b	107	3.13	4.75	locs	unint	NA	singv	740s43	e.1.01	of-with	4a	112	2.92	6.1	locs	unint	with	singv	740s12	e.4.07	with-attr-acc	3b	228	5.91	5.45	locp	int	with	singv	741s156	e.4.20	with-attr-acc	2b	240	6	6.18	locs	int	with	singv	741s168	e.1.23	of-with	4b	253	1.75	2.35	locp	unint	with	singv	741s25	e.23.15	for-of-with	3a	167	5.5	6.77	locs	unint	with	singv	741s32	e.4.15	with-attr-acc	2b	220	3.75	3.18	locs	unint	with	singv	741s33	e.5.13	clausal	3a	249	4.38	6	locp	int	NA	singv	741s44	e.4.04	with-attr-acc	4b	80	4.42	6.45	locp	int	with	singv	741s12	e.23.04	for-of-with	3b	149	3.83	5.08	locs	int	of	singv	742s16	e.23.14	for-of-with	1b	174	5.33	6.73	locp	int	for	singv	742s16	e.4.04	with-attr-acc	1b	44	3.83	4.91	locp	unint	with	singv	742s163	e.4.23	with-attr-acc	2a	167	2.17	3.18	locs	unint	with	singv	742s168	e.4.08	with-attr-acc	4b	74	6.58	5.27	locp	int	with	singv	742s20	e.23.02	for-of-with	4b	177	3.17	4.92	locs	unint	with	singv	742s23	e.5.18	clausal	2a	229	2.63	5.5	locs	int	NA	singv	742s24	e.5.05	clausal	2b	151	4.31	5.25	locs	int	NA	singv	742s40	e.4.20	with-attr-acc	2b	240	6	6.18	locs	int	with	singv	742s62	e.5.27	clausal	1b	86	2.67	4.5	locp	unint	NA	singv	742s66	e.5.19	clausal	3b	60	2.75	5.38	locs	int	NA	singv	742s39	e.5.10	clausal	2a	253	3.31	5.63	locs	int	NA	singv	743s44	e.23.15	for-of-with	4b	168	5.5	7	locp	unint	with	singv	743s45	e.1.05	of-with	1a	76	3	3.9	locp	int	of	pluralv	743s69	e.4.18	with-attr-acc	1a	244	2.58	5.55	locs	unint	with	pluralv	743s16	e.5.24	clausal	1b	231	2.25	4.5	locs	unint	NA	singv	744s28	e.1.05	of-with	4b	227	2.58	2.55	locs	unint	with	singv	744s54	e.5.33	clausal	1b	177	3.31	4.38	locs	unint	NA	singv	744s73	e.23.19	for-of-with	3a	126	4.58	6.64	locp	int	for	singv	744s38	e.5.15	clausal	1b	215	2.44	4.63	locp	int	NA	singv	745s40	e.1.22	of-with	2b	168	2.42	2.8	locp	int	of	singv	745s5	e.23.13	for-of-with	3a	231	4	6.27	locs	int	for	singv	745s17	e.1.03	of-with	2b	65	2.58	2.5	locs	unint	with	singv	746s22	e.4.07	with-attr-acc	1b	210	6.25	5.45	locs	int	with	singv	746s25	e.1.08	of-with	3a	195	3.58	4.7	locs	unint	with	singv	746s35	e.4.21	with-attr-acc	4a	176	2.5	3.36	locs	unint	with	pluralv	746s40	e.4.09	with-attr-acc	2b	210	2.25	2.64	locp	unint	with	singv	746s55	e.5.05	clausal	2a	40	4.31	5.25	locs	int	NA	singv	746s60	e.5.09	clausal	4b	149	2.56	5.88	locp	unint	NA	singv	746s74	e.5.20	clausal	3b	191	2.13	4.25	locp	unint	NA	singv	746s12	e.5.29	clausal	3b	208	3.69	4.75	locp	unint	NA	singv	747s17	e.5.26	clausal	2b	187	2.69	4.13	locs	unint	NA	singv	747s6	e.1.19	of-with	3a	181	5.5	5.85	locp	int	of	singv	747s60	e.5.14	clausal	4b	145	2.13	4.5	locp	int	NA	singv	747s61	e.1.15	of-with	1a	40	5.17	5	locs	int	of	singv	747s165	e.5.08	clausal	3a	76	3.31	5	locp	unint	NA	singv	748s168	e.1.19	of-with	4b	187	5.67	4.35	locp	unint	with	singv	748s172	e.23.02	for-of-with	2b	37	4.17	5.64	locs	int	for	singv	748s19	e.1.09	of-with	4a	174	4.5	4.4	locs	unint	with	singv	748s20	e.4.02	with-attr-acc	4b	219	5.17	5.45	locs	int	with	singv	748s46	e.23.11	for-of-with	1b	168	3.83	5.15	locp	unint	with	singv	748s61	e.5.15	clausal	1a	104	2.44	4.63	locp	int	NA	singv	748s11	e.5.17	clausal	2a	215	3.81	4.38	locs	unint	NA	singv	749s15	e.4.12	with-attr-acc	2a	233	3.5	5.09	locs	int	with	singv	749s168	e.5.21	clausal	4b	165	2.25	4.88	locp	unint	NA	singv	749s39	e.5.31	clausal	2a	93	3.56	4.38	locs	int	NA	singv	749s6	e.5.19	clausal	3a	171	2.75	5.38	locs	int	NA	singv	749s69	e.23.18	for-of-with	1a	148	5.58	6.31	locs	unint	with	singv	749s74	e.23.17	for-of-with	3b	240	5.75	6.54	locp	int	of	singv	749s165	e.4.05	with-attr-acc	3a	137	4.08	5	locs	int	with	singv	750s38	e.23.06	for-of-with	1b	104	5.42	5.69	locs	int	of	singv	750s51	e.4.12	with-attr-acc	4a	104	4.75	5	locp	int	with	singv	750s6	e.23.12	for-of-with	3a	142	4.33	5.08	locp	unint	with	singv	750s22	e.5.13	clausal	1b	65	3.38	6	locs	int	NA	singv	751s39	e.1.13	of-with	2a	221	2.83	4.15	locp	unint	with	singv	751s40	e.5.19	clausal	2b	208	2.31	4.75	locp	unint	NA	singv	751s43	e.1.20	of-with	4a	208	4.83	6.2	locp	int	of	singv	751s6	e.1.12	of-with	3a	253	3.58	4.65	locs	unint	with	pluralv	751s7	e.4.09	with-attr-acc	4a	89	2.58	3.36	locs	unint	with	singv	751s73	e.1.21	of-with	3a	161	5.33	5.75	locs	int	of	singv	751s20	e.4.01	with-attr-acc	4b	196	3.17	4.27	locs	unint	with	singv	752s49	e.23.03	for-of-with	3a	163	5.08	5.18	locs	int	for	singv	752s49	e.5.19	clausal	3a	171	2.75	5.38	locs	int	NA	singv	752s6	e.5.05	clausal	3a	239	3.06	4.5	locs	unint	NA	singv	752s13	e.23.11	for-of-with	1a	57	3.83	5.15	locp	unint	with	pluralv	753s142	e.1.09	of-with	3b	231	4.58	5.9	locs	int	of	singv	753s175	e.1.06	of-with	4a	93	3.25	5.25	locs	int	of	singv	753s175	e.5.06	clausal	4a	161	2.88	5.88	locs	unint	NA	singv	753s20	e.1.16	of-with	4b	44	4.08	2.4	locp	int	of	singv	753s43	e.1.21	of-with	4a	251	5.25	5	locs	unint	with	singv	753s54	e.5.28	clausal	1b	110	3.38	5.5	locp	int	NA	singv	753s67	e.5.20	clausal	4a	195	2.94	4.13	locs	int	NA	singv	753s11	e.5.18	clausal	2a	229	2.63	5.5	locs	int	NA	singv	754s13	e.4.21	with-attr-acc	1a	199	5.75	6.36	locp	int	with	singv	754s156	e.1.14	of-with	2b	227	5.58	4.9	locp	int	of	singv	754s22	e.4.24	with-attr-acc	1b	198	3.58	4.36	locp	unint	with	pluralv	754s38	e.23.02	for-of-with	1b	163	2.83	5	locp	unint	with	singv	754s45	e.23.01	for-of-with	1a	227	4.25	4.91	locs	int	for	singv	754s46	e.23.02	for-of-with	1b	163	2.83	5	locp	unint	with	singv	754s61	e.23.12	for-of-with	1a	161	5.08	6.21	locp	int	of	singv	754s71	e.23.11	for-of-with	2a	171	3.92	5.18	locs	int	for	singv	754s150	e.4.08	with-attr-acc	3b	255	2	3.64	locs	unint	with	singv	755s39	e.1.20	of-with	2a	195	5.17	6.35	locs	int	of	singv	755s57	e.23.15	for-of-with	3a	167	5.5	6.77	locs	unint	with	singv	755s12	e.1.02	of-with	3b	172	3.33	3.85	locp	unint	with	singv	756s163	e.4.03	with-attr-acc	2a	106	3.83	6	locs	unint	with	singv	756s18	e.5.18	clausal	3b	185	2.69	5.63	locs	unint	NA	singv	756s9	e.1.10	of-with	1a	169	3.25	3.7	locs	unint	with	singv	756s127	e.23.05	for-of-with	4a	244	5.17	5.77	locs	int	of	singv	757s31	e.5.03	clausal	2a	61	3.44	5.88	locp	int	NA	singv	757s32	e.5.34	clausal	2b	138	2.69	5.5	locs	unint	NA	singv	757s44	e.1.07	of-with	4b	120	4.64	4.75	locp	unint	with	singv	757s6	e.4.23	with-attr-acc	3a	157	6.25	5	locp	int	with	singv	757s71	e.4.02	with-attr-acc	2a	95	4.75	6.55	locp	int	with	singv	757s11	e.5.01	clausal	2a	108	4.75	4.63	locp	unint	NA	singv	758s17	e.1.08	of-with	2b	52	4.33	4.55	locs	int	of	singv	758s44	e.5.27	clausal	4b	179	2.88	5.88	locp	int	NA	singv	758s45	e.5.22	clausal	1a	146	2.31	4.11	locp	unint	NA	singv	758s142	e.5.26	clausal	3b	246	4.63	4.63	locp	int	NA	singv	759s150	e.1.12	of-with	3b	142	3.58	4.65	locs	unint	with	singv	759s172	e.4.17	with-attr-acc	2b	91	4.75	5.09	locp	unint	with	pluralv	759s52	e.4.14	with-attr-acc	4b	230	6.08	6.36	locs	int	with	singv	759s52	e.5.33	clausal	4b	124	4.44	5.25	locs	int	NA	singv	759s60	e.4.19	with-attr-acc	4b	93	3.08	4.36	locp	unint	with	singv	759s66	e.4.12	with-attr-acc	3b	194	5.08	5.55	locs	unint	with	singv	759s142	e.5.22	clausal	3b	242	2.63	4.38	locs	unint	NA	singv	760s168	e.1.21	of-with	4b	140	5.25	5	locs	unint	with	singv	760s18	e.5.05	clausal	3b	128	3.06	4.5	locs	unint	NA	singv	760s23	e.23.09	for-of-with	2a	185	4.33	4.38	locs	int	of	singv	760s248	e.23.13	for-of-with	2b	149	3.67	4.85	locp	unint	with	pluralv	760s264	e.5.15	clausal	2b	50	2.69	4	locp	unint	NA	singv	760s264	e.1.07	of-with	2b	39	3.92	3.05	locs	unint	with	singv	760s142	e.1.01	of-with	3b	77	5	6.55	locs	int	of	singv	761s172	e.1.08	of-with	2b	52	4.33	4.55	locs	int	of	singv	761s22	e.1.04	of-with	1b	142	2.67	3.2	locp	unint	with	pluralv	761s67	e.5.12	clausal	4a	47	3.69	5	locs	int	NA	singv	761s142	e.23.06	for-of-with	3b	145	5	6.07	locs	unint	with	singv	762s19	e.5.16	clausal	4a	83	4.94	4.75	locs	int	NA	singv	762s71	e.23.05	for-of-with	2a	204	4.83	5.69	locs	unint	with	singv	762s73	e.1.05	of-with	3a	190	3.25	4.85	locs	int	of	pluralv	762s156	e.5.33	clausal	2b	94	5.06	5.5	locp	int	NA	singv	763s163	e.4.09	with-attr-acc	2a	99	2.25	2.64	locp	unint	with	singv	763s165	e.1.21	of-with	3a	161	5.33	5.75	locs	int	of	singv	763s25	e.4.12	with-attr-acc	3a	83	5.08	5.55	locs	unint	with	singv	763s45	e.5.27	clausal	1a	197	2.67	4.5	locp	unint	NA	singv	763s5	e.5.26	clausal	3a	135	4.63	4.63	locp	int	NA	singv	763s57	e.5.16	clausal	3a	119	4.88	5	locp	unint	NA	singv	763s66	e.23.01	for-of-with	3b	110	3.83	4.54	locs	unint	with	pluralv	763s165	e.4.07	with-attr-acc	3a	117	5.91	5.45	locp	int	with	singv	764s20	e.4.08	with-attr-acc	4b	74	6.58	5.27	locp	int	with	singv	764s32	e.5.13	clausal	2b	214	3.38	6.38	locs	unint	NA	singv	764s43	e.4.11	with-attr-acc	4a	233	1.33	1.91	locp	unint	with	singv	764s6	e.1.14	of-with	3a	70	4.33	4.85	locp	unint	with	singv	764s71	e.5.12	clausal	2a	159	3.13	4.38	locp	int	NA	singv	764s127	e.4.12	with-attr-acc	4a	104	4.75	5	locp	int	with	singv	765s141	e.5.13	clausal	3a	249	4.38	6	locp	int	NA	singv	765s141	e.1.05	of-with	3a	190	3.25	4.85	locs	int	of	singv	765s150	e.1.14	of-with	3b	181	4.33	4.85	locp	unint	with	singv	765s150	e.4.04	with-attr-acc	3b	202	3.08	5.36	locs	unint	with	singv	765s165	e.1.01	of-with	3a	188	5	6.55	locs	int	of	singv	765s22	e.23.18	for-of-with	1b	37	5.58	6.31	locs	unint	with	singv	765s57	e.4.23	with-attr-acc	3a	157	6.25	5	locp	int	with	singv	765s61	e.1.14	of-with	1a	241	3.5	4.55	locs	unint	with	singv	765s29	e.23.14	for-of-with	1a	63	5.33	6.73	locp	int	for	singv	766s43	e.4.14	with-attr-acc	4a	119	6.08	6.36	locs	int	with	singv	766s57	e.1.23	of-with	3a	63	2.75	3.5	locp	int	of	singv	766s156	e.5.28	clausal	2b	152	2.44	3.13	locp	unint	NA	singv	767s16	e.23.10	for-of-with	1b	77	3.25	5.08	locs	unint	with	singv	767s168	e.23.10	for-of-with	4b	210	4.67	3.31	locp	int	of	singv	767s22	e.1.10	of-with	1b	58	3.25	3.7	locs	unint	with	singv	767s51	e.4.19	with-attr-acc	4a	204	3.08	4.36	locp	unint	with	singv	767s62	e.23.05	for-of-with	1b	179	4.08	6.36	locp	int	of	singv	767s7	e.23.07	for-of-with	4a	131	4.25	6.73	locs	int	for	singv	767s12	e.5.19	clausal	3b	60	2.75	5.38	locs	int	NA	singv	768s127	e.23.08	for-of-with	4a	239	4.58	6.31	locp	unint	with	singv	768s150	e.1.02	of-with	3b	172	3.33	3.85	locp	unint	with	singv	768s150	e.23.14	for-of-with	3b	107	5.5	6.93	locp	unint	with	singv	768s24	e.1.20	of-with	2b	84	5.17	6.35	locs	int	of	singv	768s248	e.5.16	clausal	2b	234	5.06	5.63	locp	int	NA	singv	768s30	e.23.02	for-of-with	1b	163	2.83	5	locp	unint	with	pluralv	768s39	e.23.06	for-of-with	2a	246	3.92	5.38	locp	int	of	singv	768s163	e.1.08	of-with	2a	163	4.33	4.55	locs	int	of	singv	769s22	e.1.11	of-with	1b	113	5.25	4.9	locs	int	of	singv	769s25	e.5.30	clausal	3a	148	5.44	5.89	locp	int	NA	singv	769s26	e.4.04	with-attr-acc	3b	202	3.08	5.36	locs	unint	with	singv	769s29	e.1.15	of-with	1a	40	5.17	5	locs	int	of	singv	769s30	e.5.10	clausal	1b	165	2.88	4.13	locp	unint	NA	singv	769s32	e.23.10	for-of-with	2b	116	4.33	5.64	locp	unint	with	singv	769s43	e.4.23	with-attr-acc	4a	137	2.17	2.45	locp	unint	with	singv	769s44	e.1.11	of-with	4b	152	4.42	5	locp	unint	with	singv	769s5	e.23.14	for-of-with	3a	218	5.5	6.93	locp	unint	with	singv	769s5	e.5.11	clausal	3a	185	2.94	5.38	locs	int	NA	singv	769s51	e.4.22	with-attr-acc	4a	117	4.58	5.64	locs	int	with	singv	769s52	e.5.17	clausal	4b	234	4	4.38	locp	unint	NA	singv	769s74	e.5.16	clausal	3b	230	4.88	5	locp	unint	NA	singv	769s127	e.5.22	clausal	4a	72	3.31	5.13	locp	int	NA	singv	770s172	e.23.12	for-of-with	2b	68	4.5	5.92	locs	unint	with	singv	770s18	e.1.15	of-with	3b	223	3.67	4.3	locp	int	of	singv	770s37	e.1.13	of-with	1a	213	3.58	5.3	locp	int	of	singv	770s5	e.1.01	of-with	3a	188	5	6.55	locs	int	of	singv	770s55	e.5.23	clausal	2a	34	3.69	3.63	locp	unint	NA	singv	770s12	e.1.04	of-with	3b	165	2.25	3	locs	unint	with	singv	771s12	e.4.12	with-attr-acc	3b	194	5.08	5.55	locs	unint	with	singv	771s141	e.4.05	with-attr-acc	3a	137	4.08	5	locs	int	with	singv	771s141	e.5.36	clausal	3a	199	2.25	4.56	locs	unint	NA	singv	771s16	e.1.08	of-with	1b	170	3.42	4.55	locp	unint	with	singv	771s163	e.23.07	for-of-with	2a	66	3.5	6	locs	unint	with	singv	771s44	e.23.02	for-of-with	4b	177	3.17	4.92	locs	unint	with	singv	771s51	e.4.11	with-attr-acc	4a	233	1.33	1.91	locp	unint	with	singv	771s66	e.5.03	clausal	3b	126	2.94	5.63	locp	unint	NA	singv	771s150	e.23.05	for-of-with	3b	250	3.75	6.15	locp	unint	with	singv	772s168	e.1.15	of-with	4b	77	4	3.8	locp	unint	with	singv	772s168	e.23.06	for-of-with	4b	185	3.42	5.15	locp	unint	with	pluralv	772s336	e.4.04	with-attr-acc	4b	80	4.42	6.45	locp	int	with	singv	772s6	e.23.09	for-of-with	3a	106	4.25	4.69	locp	int	of	singv	772s60	e.4.08	with-attr-acc	4b	74	6.58	5.27	locp	int	with	singv	772s60	e.5.20	clausal	4b	84	2.94	4.13	locs	int	NA	singv	772s61	e.1.16	of-with	1a	83	2.92	4.45	locp	unint	with	pluralv	772s71	e.1.24	of-with	2a	59	3.5	4.65	locs	int	of	singv	772s158	e.5.05	clausal	3b	128	3.06	4.5	locs	unint	NA	pluralv	773s25	e.5.13	clausal	3a	249	4.38	6	locp	int	NA	singv	773s336	e.5.32	clausal	4b	116	3.75	4.63	locs	unint	NA	singv	773s49	e.5.28	clausal	3a	104	2.75	4.75	locs	int	NA	singv	773s55	e.23.05	for-of-with	2a	204	4.83	5.69	locs	unint	with	singv	773s6	e.5.16	clausal	3a	119	4.88	5	locp	unint	NA	singv	773s12	e.1.07	of-with	3b	227	5.58	4.45	locp	int	of	singv	774s15	e.5.32	clausal	2a	83	3.19	5.13	locp	unint	NA	singv	774s156	e.4.14	with-attr-acc	2b	79	5.83	6.55	locp	int	with	singv	774s40	e.4.13	with-attr-acc	2b	191	2.17	4.36	locp	unint	with	singv	774s44	e.23.08	for-of-with	4b	128	4.58	6.31	locp	unint	with	singv	774s46	e.5.17	clausal	1b	74	4.38	4.56	locs	int	NA	singv	774s57	e.4.03	with-attr-acc	3a	224	5.92	6.45	locp	int	with	singv	774s71	e.4.20	with-attr-acc	2a	129	6	6.18	locs	int	with	singv	774s18	e.5.14	clausal	3b	144	2.38	5.33	locs	unint	NA	singv	775